"stepOne_Param","stepOneTwo_Param","stepTwoTwo_Param","rewards_Param","stepOneChoice","stepTwoChoice","reward","rewardProbabilities","isHighProbOne","isHighProbTwo","trial_type","trial_index","time_elapsed","internal_node_id"
"[0,1]","[0,1]","[2,3]","[true,false,true,false]","0","1","false","[0.6201583069728022,0.7137386262882779,0.7276017885749039,0.5826895389936317]","true","true","dawsTwoStep","0","6369","0.0-0.0"
"[0,1]","[2,3]","[2,3]","[false,false,false,true]","0","2","false","[0.6440340246964376,0.7087366815935728,0.7030485539719751,0.5780717409858088]","false","true","dawsTwoStep","1","9477","0.0-1.0"
"[0,1]","[0,1]","[3,2]","[true,true,true,false]","1","3","false","[0.6825867735759592,0.7189846262669131,0.7274558540752186,0.5835731041704773]","true","true","dawsTwoStep","2","12651","0.0-2.0"
"[1,0]","[0,1]","[2,3]","[true,true,true,true]","1","3","true","[0.7104387969181716,0.6940670776170147,0.7436266420480588,0.6005160516787807]","true","true","dawsTwoStep","3","16435","0.0-3.0"
"[1,0]","[2,3]","[3,2]","[true,true,true,true]","1","3","true","[0.7023639997318024,0.6785150509750373,0.75,0.6099631739289824]","false","true","dawsTwoStep","4","19733","0.0-4.0"
"[0,1]","[1,0]","[3,2]","[false,true,false,true]","1","3","true","[0.6646892268745127,0.6938406356094735,0.742151232574186,0.5929746105776466]","true","true","dawsTwoStep","5","23034","0.0-5.0"
"[0,1]","[3,2]","[1,0]","[false,true,true,false]","1","0","false","[0.6798713541380336,0.6644334316151466,0.75,0.5782447200516343]","false","false","dawsTwoStep","6","27013","0.0-6.0"
"[0,1]","[1,0]","[2,3]","[true,false,false,false]","1","3","false","[0.6736426968319372,0.6984234804576195,0.7223274092199997,0.5475375774292566]","true","true","dawsTwoStep","7","30484","0.0-7.0"
"[0,1]","[0,1]","[3,2]","[false,true,true,false]","1","2","true","[0.7186693442168389,0.6871497714875933,0.6860474895700333,0.5975136136513183]","true","true","dawsTwoStep","8","33188","0.0-8.0"
"[1,0]","[1,0]","[1,0]","[true,false,false,true]","0","1","false","[0.7338752313797084,0.686190259375527,0.673428357222676,0.572370884493256]","true","false","dawsTwoStep","9","35850","0.0-9.0"
"[0,1]","[1,0]","[2,3]","[true,false,true,true]","1","2","true","[0.6892443597362613,0.6827978490852381,0.6845711075845838,0.5712722845580156]","true","true","dawsTwoStep","10","38983","0.0-10.0"
"[1,0]","[3,2]","[2,3]","[true,true,true,false]","1","2","true","[0.6662882143298753,0.6556107852521439,0.67604470572073,0.553610709812198]","false","true","dawsTwoStep","11","41937","0.0-11.0"
"[1,0]","[1,0]","[3,2]","[false,true,true,false]","1","2","true","[0.6532282509203257,0.6542086582285676,0.6638717004444272,0.5731000342096895]","true","true","dawsTwoStep","12","45141","0.0-12.0"
"[1,0]","[0,1]","[0,1]","[true,true,true,false]","1","1","true","[0.6844558668201403,0.6801352490819541,0.6536766219044906,0.5910461032505963]","true","false","dawsTwoStep","13","49739","0.0-13.0"
"[1,0]","[2,3]","[2,3]","[true,true,false,false]","0","2","false","[0.6416912167448384,0.6743907807166045,0.6259669847805793,0.5994498105463888]","false","true","dawsTwoStep","14","53633","0.0-14.0"
"[1,0]","[1,0]","[2,3]","[true,false,false,true]","1","2","false","[0.6371530059647896,0.6464006814191448,0.630948772055542,0.5851672496376693]","true","true","dawsTwoStep","15","56385","0.0-15.0"
"[1,0]","[1,0]","[1,0]","[false,true,true,true]","0","1","true","[0.6656836270086923,0.6606384853398128,0.6944177418417639,0.5322812728912985]","true","false","dawsTwoStep","16","59279","0.0-16.0"
"[0,1]","[3,2]","[1,0]","[true,false,false,true]","0","3","true","[0.6088030303137971,0.6557878435359205,0.7045611756083445,0.5452746802417701]","false","false","dawsTwoStep","17","64019","0.0-17.0"
"[1,0]","[3,2]","[2,3]","[true,true,true,false]","0","3","false","[0.6060757935711609,0.6729382924693432,0.6850498113999595,0.5180225817820142]","false","true","dawsTwoStep","18","66960","0.0-18.0"
"[0,1]","[1,0]","[1,0]","[false,false,true,true]","1","0","false","[0.6190707160496896,0.6930499303506402,0.6977428559759145,0.5068082979483616]","true","false","dawsTwoStep","19","71056","0.0-19.0"
"[0,1]","[2,3]","[3,2]","[true,true,true,false]","0","3","false","[0.6318811095881194,0.7210687122777312,0.6976977304481715,0.4977061846278925]","false","true","dawsTwoStep","20","74615","0.0-20.0"
"[0,1]","[2,3]","[3,2]","[false,false,true,true]","1","3","true","[0.6630830443772998,0.7146063209225776,0.6839984458134881,0.5008024934950056]","false","true","dawsTwoStep","21","77123","0.0-21.0"
"[1,0]","[0,1]","[1,0]","[false,true,true,false]","1","0","false","[0.6564764781225888,0.6925400650192646,0.7168153593344295,0.4947955869327689]","true","false","dawsTwoStep","22","80930","0.0-22.0"
"[0,1]","[0,1]","[1,0]","[false,true,true,false]","1","0","false","[0.6010260364744536,0.7009742658354696,0.75,0.43047624668755463]","true","false","dawsTwoStep","23","84145","0.0-23.0"
"[0,1]","[0,1]","[2,3]","[false,true,true,true]","0","0","false","[0.5810722709708986,0.7400006701196971,0.75,0.441639632820914]","true","true","dawsTwoStep","24","86780","0.0-24.0"
"[0,1]","[1,0]","[3,2]","[true,true,true,false]","0","1","true","[0.5854045915740635,0.7130204831821907,0.7108937966602478,0.40656666338112785]","true","true","dawsTwoStep","25","90155","0.0-25.0"
"[1,0]","[0,1]","[3,2]","[false,true,false,true]","0","1","true","[0.5952942414045845,0.717521362451029,0.7230812844611217,0.42765002257021006]","true","true","dawsTwoStep","26","93172","0.0-26.0"
"[0,1]","[3,2]","[3,2]","[true,true,true,false]","0","2","true","[0.6064729630431538,0.7014744291742321,0.7249089660720727,0.43561223154172746]","false","true","dawsTwoStep","27","96664","0.0-27.0"
"[1,0]","[0,1]","[0,1]","[false,false,false,false]","0","1","false","[0.5977714578899122,0.7374258963363624,0.6827944951518965,0.4500119669781493]","true","false","dawsTwoStep","28","99721","0.0-28.0"
"[1,0]","[2,3]","[3,2]","[true,false,false,false]","1","2","false","[0.6182987828833583,0.7062538649494081,0.678318127761806,0.4132295108587676]","false","true","dawsTwoStep","29","102085","0.0-29.0"
"[1,0]","[2,3]","[2,3]","[false,true,true,false]","1","3","false","[0.6492642250452219,0.7217700614926005,0.6321127715923474,0.39847597868478274]","false","true","dawsTwoStep","30","105124","0.0-30.0"
"[1,0]","[1,0]","[3,2]","[true,true,true,true]","0","0","true","[0.6773133378592026,0.691344078784046,0.5718746272232949,0.38050634210831247]","true","true","dawsTwoStep","31","107574","0.0-31.0"
"[0,1]","[1,0]","[2,3]","[true,true,false,true]","0","0","true","[0.6660296604619105,0.7003834187256772,0.5945183780245262,0.376397460297424]","true","true","dawsTwoStep","32","110576","0.0-32.0"
"[1,0]","[0,1]","[2,3]","[true,true,true,false]","0","0","true","[0.6485231314185831,0.7175075488919315,0.5797110880567595,0.3822178364550631]","true","true","dawsTwoStep","33","113983","0.0-33.0"
"[0,1]","[1,0]","[2,3]","[false,true,true,false]","0","0","false","[0.5972915324926604,0.6819804970957488,0.5828113786295531,0.3494215937862439]","true","true","dawsTwoStep","34","116798","0.0-34.0"
"[1,0]","[1,0]","[2,3]","[false,false,true,false]","0","0","false","[0.5659021114201546,0.6635619946909761,0.5800404078437954,0.29465794820171576]","true","true","dawsTwoStep","35","120955","0.0-35.0"
"[0,1]","[0,1]","[1,0]","[false,false,false,true]","0","1","false","[0.5746639928308899,0.6859604790890655,0.5426364820867724,0.30291211256981565]","true","false","dawsTwoStep","36","124979","0.0-36.0"
"[0,1]","[0,1]","[2,3]","[false,false,false,false]","1","2","false","[0.5946235302805349,0.7090425685965528,0.5205026781848351,0.30420769082741295]","true","true","dawsTwoStep","37","127362","0.0-37.0"
"[0,1]","[2,3]","[2,3]","[false,false,false,false]","1","3","false","[0.5984992217384334,0.68933565090212,0.5323074797294544,0.3030561445127787]","false","true","dawsTwoStep","38","129911","0.0-38.0"
"[1,0]","[1,0]","[0,1]","[false,false,false,false]","1","1","false","[0.575757109814501,0.7299192937353016,0.5459889001115901,0.2934932585256776]","true","false","dawsTwoStep","39","132898","0.0-39.0"
"[0,1]","[1,0]","[2,3]","[false,false,false,false]","1","2","false","[0.5684632632919879,0.6922617537158519,0.5079662335322435,0.2741318874537435]","true","true","dawsTwoStep","40","135182","0.0-40.0"
"[0,1]","[3,2]","[2,3]","[true,true,false,false]","0","3","false","[0.5549678068523951,0.6729005872053622,0.5185930164587437,0.2785159983480761]","false","true","dawsTwoStep","41","138196","0.0-41.0"
"[0,1]","[1,0]","[3,2]","[false,true,true,false]","0","1","true","[0.5513263799711802,0.694147596260667,0.5464597058121006,0.25]","true","true","dawsTwoStep","42","140965","0.0-42.0"
"[0,1]","[3,2]","[3,2]","[true,false,false,true]","0","3","true","[0.5484241658323503,0.7324148469689444,0.49712130224310613,0.25]","false","true","dawsTwoStep","43","144009","0.0-43.0"
"[1,0]","[2,3]","[2,3]","[true,false,false,true]","0","2","false","[0.5290446422736416,0.7316634647824649,0.4564422720235587,0.25]","false","true","dawsTwoStep","44","147845","0.0-44.0"
"[1,0]","[1,0]","[3,2]","[true,true,true,true]","1","2","true","[0.5452842511673756,0.7278293919889803,0.4289228952145736,0.25]","true","true","dawsTwoStep","45","150618","0.0-45.0"
"[1,0]","[0,1]","[2,3]","[true,true,false,true]","1","2","false","[0.5349533416305902,0.75,0.39658255625355054,0.26594242101718946]","true","true","dawsTwoStep","46","153149","0.0-46.0"
"[1,0]","[1,0]","[0,1]","[false,true,false,true]","0","1","true","[0.5258684669906745,0.75,0.3981355177274178,0.25]","true","false","dawsTwoStep","47","156285","0.0-47.0"
"[0,1]","[1,0]","[3,2]","[true,true,false,true]","0","1","true","[0.5196999500088806,0.7117467680922007,0.4044803498776303,0.25]","true","true","dawsTwoStep","48","159213","0.0-48.0"
"[1,0]","[3,2]","[3,2]","[true,true,true,false]","0","2","true","[0.517107559357417,0.7008403540536959,0.4182365670648297,0.2659675862589359]","false","true","dawsTwoStep","49","164050","0.0-49.0"
"[0,1]","[0,1]","[3,2]","[false,false,true,false]","0","1","false","[0.5245490111481792,0.7270243922468385,0.39707066432852356,0.28158258440167994]","true","true","dawsTwoStep","50","167390","0.0-50.0"
"[1,0]","[0,1]","[0,1]","[true,true,false,true]","1","1","true","[0.582280824400959,0.7270492839908259,0.426337764767499,0.27492452840602133]","true","false","dawsTwoStep","51","171404","0.0-51.0"
"[0,1]","[1,0]","[2,3]","[true,true,false,false]","1","3","false","[0.5869990490954679,0.7298440596176651,0.4853216835564248,0.28458354996331253]","true","true","dawsTwoStep","52","174851","0.0-52.0"
"[1,0]","[0,1]","[1,0]","[true,false,false,true]","1","1","false","[0.57802705006032,0.69106969441291,0.5067280585028443,0.2980617109898602]","true","false","dawsTwoStep","53","177907","0.0-53.0"
"[0,1]","[3,2]","[3,2]","[true,true,false,true]","1","2","false","[0.6322065601243559,0.6769026726826698,0.5108541264323545,0.32553233527166237]","false","true","dawsTwoStep","54","181663","0.0-54.0"
"[1,0]","[0,1]","[2,3]","[false,true,true,false]","1","3","false","[0.5973059329298035,0.6220314747229627,0.4792411909199251,0.32768447570790615]","true","true","dawsTwoStep","55","184776","0.0-55.0"
"[1,0]","[0,1]","[2,3]","[true,false,true,false]","0","1","false","[0.5587398757822168,0.6213208174822564,0.4676390833581831,0.36606285870022115]","true","true","dawsTwoStep","56","188027","0.0-56.0"
"[1,0]","[1,0]","[0,1]","[true,true,true,false]","0","0","true","[0.585186956935122,0.6321427253541758,0.45942039131644646,0.381199522837577]","true","false","dawsTwoStep","57","191023","0.0-57.0"
"[1,0]","[2,3]","[0,1]","[true,true,false,false]","0","3","false","[0.6205459198075797,0.6610807276008919,0.4775570282435142,0.3606985541182465]","false","false","dawsTwoStep","58","194751","0.0-58.0"
"[1,0]","[2,3]","[0,1]","[false,true,false,false]","0","2","false","[0.5983247955369405,0.6730061930365977,0.453338928380759,0.3770716219782871]","false","false","dawsTwoStep","59","198105","0.0-59.0"
"[0,1]","[0,1]","[0,1]","[true,false,true,false]","0","1","false","[0.5644053551506731,0.6584900069413162,0.4675510374578951,0.3920149439207418]","true","false","dawsTwoStep","60","200432","0.0-60.0"
"[1,0]","[0,1]","[3,2]","[true,false,false,false]","0","0","true","[0.5356581987472454,0.6796581226798663,0.4834662653591887,0.38593851193998063]","true","true","dawsTwoStep","61","203366","0.0-61.0"
"[0,1]","[1,0]","[1,0]","[false,false,true,false]","0","0","false","[0.5260269568460151,0.6680227224308254,0.4816273601646641,0.35207454335549604]","true","false","dawsTwoStep","62","206872","0.0-62.0"
"[1,0]","[2,3]","[2,3]","[true,false,false,false]","0","2","false","[0.5993753629160062,0.6584699002216622,0.49451066617982714,0.3447217511634333]","false","true","dawsTwoStep","63","209966","0.0-63.0"
"[0,1]","[1,0]","[0,1]","[true,false,false,true]","1","0","true","[0.5644621070922385,0.7070725382195676,0.5087661045353785,0.3383753291910751]","true","false","dawsTwoStep","64","213265","0.0-64.0"
"[1,0]","[3,2]","[0,1]","[false,true,false,false]","1","0","false","[0.5573563334207083,0.676545002741984,0.5473660914973448,0.35173274726678394]","false","false","dawsTwoStep","65","216267","0.0-65.0"
"[0,1]","[2,3]","[0,1]","[false,true,true,false]","1","0","false","[0.5275760719530094,0.6990047464360629,0.5643458419929783,0.33928116314303997]","false","false","dawsTwoStep","66","219023","0.0-66.0"
"[1,0]","[3,2]","[3,2]","[true,true,true,false]","0","2","true","[0.5547691095019885,0.7227753096905267,0.5564104849703566,0.31684968612234177]","false","true","dawsTwoStep","67","222240","0.0-67.0"
"[0,1]","[0,1]","[2,3]","[true,true,true,false]","0","0","true","[0.5280481381840443,0.7354754383537742,0.5152010536252104,0.3109312075806792]","true","true","dawsTwoStep","68","226532","0.0-68.0"
"[1,0]","[1,0]","[2,3]","[false,true,true,false]","0","0","false","[0.48735855539474143,0.75,0.5168808771917479,0.31859827347775976]","true","true","dawsTwoStep","69","229187","0.0-69.0"
"[1,0]","[2,3]","[3,2]","[true,true,true,false]","0","2","true","[0.432652865794749,0.7262276066170592,0.5587241606595195,0.2919702499446072]","false","true","dawsTwoStep","70","232537","0.0-70.0"
"[1,0]","[1,0]","[0,1]","[true,true,false,true]","0","0","true","[0.4400422414345659,0.7100241546401035,0.5269415752825477,0.30430650454227176]","true","false","dawsTwoStep","71","235512","0.0-71.0"
"[1,0]","[3,2]","[3,2]","[false,false,true,false]","0","3","false","[0.4499334995528403,0.7425448991314848,0.4925973734917636,0.25402465773521665]","false","true","dawsTwoStep","72","238187","0.0-72.0"
"[1,0]","[1,0]","[2,3]","[true,true,true,false]","0","0","true","[0.4416611183453954,0.75,0.4881169795575137,0.25]","true","true","dawsTwoStep","73","240935","0.0-73.0"
"[0,1]","[3,2]","[2,3]","[false,true,true,false]","0","2","true","[0.3928802793025166,0.75,0.5077623008016529,0.2758942652283315]","false","true","dawsTwoStep","74","246101","0.0-74.0"
"[1,0]","[2,3]","[0,1]","[true,true,false,false]","0","3","false","[0.36507368317033123,0.75,0.5302660358591972,0.262024622664431]","false","false","dawsTwoStep","75","249678","0.0-75.0"
"[0,1]","[0,1]","[1,0]","[false,false,true,false]","1","0","false","[0.41762385671548335,0.7426931183676171,0.49253954891778684,0.28119778595862943]","true","false","dawsTwoStep","76","252996","0.0-76.0"
"[0,1]","[1,0]","[3,2]","[true,true,true,false]","1","2","true","[0.41467832181556796,0.75,0.5224610100250865,0.295201767374628]","true","true","dawsTwoStep","77","255484","0.0-77.0"
"[0,1]","[0,1]","[0,1]","[true,true,true,false]","1","1","true","[0.4388923511544738,0.7499955107952966,0.514073086866808,0.2697194934207132]","true","false","dawsTwoStep","78","258623","0.0-78.0"
"[0,1]","[1,0]","[3,2]","[true,true,true,false]","1","3","false","[0.4116423014233727,0.7370290766895077,0.5088642545078672,0.2697978253771134]","true","true","dawsTwoStep","79","262280","0.0-79.0"
"[0,1]","[1,0]","[2,3]","[true,true,true,false]","1","3","false","[0.440265053680636,0.7476507636417945,0.5105885557930328,0.25]","true","true","dawsTwoStep","80","265209","0.0-80.0"
"[1,0]","[3,2]","[2,3]","[true,true,false,true]","0","2","false","[0.49685474021541665,0.7348149493456871,0.4909517922746449,0.25]","false","true","dawsTwoStep","81","268096","0.0-81.0"
"[0,1]","[1,0]","[3,2]","[false,true,false,false]","0","1","true","[0.47558904485389447,0.7378045808686696,0.4386276380274444,0.25]","true","true","dawsTwoStep","82","271445","0.0-82.0"
"[0,1]","[0,1]","[2,3]","[false,true,false,false]","1","3","false","[0.492706743519274,0.75,0.4502054174737665,0.25]","true","true","dawsTwoStep","83","275325","0.0-83.0"
"[1,0]","[0,1]","[1,0]","[true,true,true,false]","0","1","true","[0.48563419362894616,0.716883619017194,0.47920552036056663,0.25]","true","false","dawsTwoStep","84","278341","0.0-84.0"
"[1,0]","[2,3]","[2,3]","[true,true,false,false]","0","2","false","[0.4482081804048894,0.7081717654457557,0.5051219674139539,0.2767058410414123]","false","true","dawsTwoStep","85","281614","0.0-85.0"
"[1,0]","[0,1]","[3,2]","[true,true,true,false]","1","3","false","[0.47260315159485633,0.7182267628447144,0.4746929411101245,0.2930628349518342]","true","true","dawsTwoStep","86","284680","0.0-86.0"
"[0,1]","[1,0]","[3,2]","[false,true,true,true]","1","2","true","[0.4520534824469646,0.7198078525548093,0.49968151986449905,0.32091844506953626]","true","true","dawsTwoStep","87","288220","0.0-87.0"
"[1,0]","[0,1]","[3,2]","[false,false,true,false]","1","2","true","[0.4427083178466148,0.7201656959779021,0.4933055907469201,0.32931829670684215]","true","true","dawsTwoStep","88","291149","0.0-88.0"
"[1,0]","[0,1]","[2,3]","[false,true,false,false]","1","2","false","[0.43912772241160236,0.7212949186484452,0.5252095110030357,0.32184797067767773]","true","true","dawsTwoStep","89","293666","0.0-89.0"
"[0,1]","[0,1]","[2,3]","[true,true,true,false]","1","2","true","[0.45611434295258846,0.6931729743227641,0.5328058301568809,0.31571485515576786]","true","true","dawsTwoStep","90","296549","0.0-90.0"
"[1,0]","[0,1]","[2,3]","[true,false,true,true]","1","2","true","[0.4529334850981307,0.7418457591221916,0.5581272373303804,0.34102244087093236]","true","true","dawsTwoStep","91","299376","0.0-91.0"
"[1,0]","[0,1]","[3,2]","[true,false,false,false]","1","2","false","[0.47293576213579475,0.7011449302088812,0.5441443745330253,0.35430102627818066]","true","true","dawsTwoStep","92","302235","0.0-92.0"
"[1,0]","[1,0]","[2,3]","[false,false,false,true]","1","2","false","[0.44390190279448327,0.7012048569820106,0.5861574620356045,0.3560270766659901]","true","true","dawsTwoStep","93","304885","0.0-93.0"
"[1,0]","[1,0]","[3,2]","[true,false,true,false]","1","3","false","[0.4422535169949056,0.679805862908619,0.5615949978898009,0.32507681845884867]","true","true","dawsTwoStep","94","307286","0.0-94.0"
"[1,0]","[0,1]","[3,2]","[false,true,false,true]","0","0","false","[0.4197530826101949,0.6347857021414588,0.5506328254509719,0.3332012568040891]","true","true","dawsTwoStep","95","309645","0.0-95.0"
"[1,0]","[3,2]","[0,1]","[true,true,false,false]","0","2","false","[0.4434758792716042,0.6257716050287532,0.537354111176326,0.2997069725588908]","false","false","dawsTwoStep","96","312794","0.0-96.0"
"[0,1]","[0,1]","[1,0]","[false,true,false,false]","0","1","true","[0.39212694870466497,0.6438663887458084,0.5481553672624865,0.3084880020012384]","true","false","dawsTwoStep","97","315849","0.0-97.0"
"[0,1]","[0,1]","[3,2]","[true,false,true,false]","0","1","false","[0.3903744955799934,0.6446892837373885,0.5521847592606588,0.3209593752496832]","true","true","dawsTwoStep","98","318606","0.0-98.0"
"[0,1]","[0,1]","[2,3]","[true,false,true,true]","0","1","false","[0.38786449401225415,0.6313800663224951,0.5210790761494094,0.3219501929578476]","true","true","dawsTwoStep","99","320694","0.0-99.0"
"[0,1]","[0,1]","[3,2]","[false,true,false,true]","0","0","false","[0.3813215525621799,0.6315542634063301,0.5209586599754693,0.33721673093725646]","true","true","dawsTwoStep","100","322830","0.0-100.0"
"[0,1]","[1,0]","[3,2]","[true,true,true,false]","1","3","false","[0.392136999108394,0.6001629038574634,0.5341274856814873,0.315483953777868]","true","true","dawsTwoStep","101","325398","0.0-101.0"
"[0,1]","[1,0]","[2,3]","[false,true,false,false]","1","2","false","[0.38297654023745625,0.625364223528673,0.510932661334622,0.3125246830466878]","true","true","dawsTwoStep","102","327738","0.0-102.0"
"[1,0]","[1,0]","[3,2]","[false,false,false,false]","0","0","false","[0.34108225653813695,0.6231808168642068,0.5069874068502662,0.3159373611416827]","true","true","dawsTwoStep","103","330739","0.0-103.0"
"[1,0]","[0,1]","[3,2]","[false,false,false,false]","0","0","false","[0.2958785305783362,0.6031417198611987,0.4902749495805051,0.3356368886895838]","true","true","dawsTwoStep","104","333480","0.0-104.0"
"[1,0]","[1,0]","[0,1]","[true,false,false,true]","1","0","true","[0.2756703369491647,0.6458925411516229,0.4407069100882586,0.3123869542900564]","true","false","dawsTwoStep","105","335954","0.0-105.0"
"[1,0]","[1,0]","[1,0]","[false,true,false,true]","1","0","false","[0.2849583685322328,0.668721648439668,0.45347738234760226,0.30475248416240774]","true","false","dawsTwoStep","106","338494","0.0-106.0"
"[1,0]","[1,0]","[1,0]","[false,true,true,false]","1","0","false","[0.28932375387830955,0.6989366504024479,0.46127442115648326,0.3103775152098754]","true","false","dawsTwoStep","107","340523","0.0-107.0"
"[1,0]","[3,2]","[1,0]","[true,true,true,false]","1","1","true","[0.3061551283407542,0.6859423707637793,0.39167264057568607,0.3081444918657396]","false","false","dawsTwoStep","108","342682","0.0-108.0"
"[0,1]","[1,0]","[3,2]","[false,true,false,true]","1","2","false","[0.3217344491409806,0.7266641055098104,0.37890484422959725,0.32117384298953944]","true","true","dawsTwoStep","109","346495","0.0-109.0"
"[1,0]","[1,0]","[2,3]","[true,false,false,false]","1","2","false","[0.3455004084377806,0.7062713500687532,0.4080531687428795,0.319404043508308]","true","true","dawsTwoStep","110","349137","0.0-110.0"
"[0,1]","[0,1]","[1,0]","[false,true,true,true]","1","1","true","[0.3297961063010207,0.6893271960349423,0.41472914134024497,0.3703865467280333]","true","false","dawsTwoStep","111","352090","0.0-111.0"
"[1,0]","[3,2]","[3,2]","[false,true,false,true]","1","3","true","[0.35625088124699217,0.6485935408620442,0.3996754411986281,0.3459740898121291]","false","true","dawsTwoStep","112","355522","0.0-112.0"
"[0,1]","[0,1]","[2,3]","[false,true,false,false]","0","1","true","[0.268571565050333,0.6345916043183223,0.41570331335109023,0.35712093206730255]","true","true","dawsTwoStep","113","358900","0.0-113.0"
"[0,1]","[2,3]","[2,3]","[false,false,true,false]","0","3","false","[0.2572953992860082,0.6438166335495026,0.37535352009845313,0.3649875338442238]","false","true","dawsTwoStep","114","361418","0.0-114.0"
"[1,0]","[3,2]","[1,0]","[false,true,false,false]","0","3","false","[0.25731234205066483,0.6112297850650491,0.3513430385976612,0.3797155292193192]","false","false","dawsTwoStep","115","364528","0.0-115.0"
"[0,1]","[1,0]","[2,3]","[true,false,true,true]","0","1","false","[0.28875818315995794,0.5927584781482913,0.31912744184368896,0.3840539467347264]","true","true","dawsTwoStep","116","367580","0.0-116.0"
"[1,0]","[2,3]","[3,2]","[true,true,false,false]","1","3","false","[0.29643280088178264,0.6067682979208076,0.2990184587055843,0.3526142567251037]","false","true","dawsTwoStep","117","371507","0.0-117.0"
"[0,1]","[2,3]","[0,1]","[true,true,true,false]","1","0","true","[0.2698051824047045,0.6011729465913555,0.3040861140088293,0.3829546220945371]","false","false","dawsTwoStep","118","375648","0.0-118.0"
"[1,0]","[0,1]","[1,0]","[true,false,false,false]","0","0","true","[0.2778832113628808,0.6095110965336583,0.30553519075413305,0.38667824852355376]","true","false","dawsTwoStep","119","378724","0.0-119.0"
"[1,0]","[3,2]","[3,2]","[false,true,false,false]","0","2","false","[0.29311679668499396,0.6120040293920905,0.2822702223859462,0.38651873093577915]","false","true","dawsTwoStep","120","383469","0.0-120.0"
"[1,0]","[0,1]","[1,0]","[false,false,false,true]","1","0","false","[0.26857053794513935,0.5585888208150686,0.2772028574100658,0.3846401933077483]","true","false","dawsTwoStep","121","386201","0.0-121.0"
"[0,1]","[1,0]","[3,2]","[false,false,false,false]","1","3","false","[0.27291981561801776,0.540702608419027,0.2735689003960684,0.3935200917542527]","true","true","dawsTwoStep","122","389784","0.0-122.0"
"[0,1]","[1,0]","[0,1]","[false,true,false,true]","1","0","false","[0.27636863123231775,0.536275432254461,0.25261857633460877,0.4033651123428705]","true","false","dawsTwoStep","123","392810","0.0-123.0"
"[0,1]","[0,1]","[3,2]","[false,true,false,false]","1","2","false","[0.273514543213341,0.534164223787791,0.25202450357912604,0.42804247416192787]","true","true","dawsTwoStep","124","395373","0.0-124.0"
"[0,1]","[3,2]","[2,3]","[false,false,false,false]","0","3","false","[0.2566137144064618,0.5364207080950589,0.25,0.4161388181427774]","false","true","dawsTwoStep","125","398336","0.0-125.0"
"[0,1]","[3,2]","[3,2]","[true,false,false,true]","1","3","true","[0.25,0.5711461603111607,0.25,0.390818636695422]","false","true","dawsTwoStep","126","401876","0.0-126.0"
"[0,1]","[2,3]","[0,1]","[false,true,true,true]","1","0","false","[0.25,0.548873021010165,0.25295949735242695,0.4194395040163059]","false","false","dawsTwoStep","127","405010","0.0-127.0"
"[1,0]","[2,3]","[2,3]","[false,false,true,true]","1","3","true","[0.25715735332861817,0.5528500561104004,0.25,0.4156986670625996]","false","true","dawsTwoStep","128","408150","0.0-128.0"
"[1,0]","[2,3]","[3,2]","[true,true,false,true]","1","3","true","[0.27304204003648846,0.5316522205693998,0.25,0.44561569263138556]","false","true","dawsTwoStep","129","410480","0.0-129.0"
"[1,0]","[1,0]","[0,1]","[false,false,true,false]","1","1","false","[0.2946709519075188,0.5114584235144255,0.2847408689694666,0.4593150887105714]","true","false","dawsTwoStep","130","413092","0.0-130.0"
"[0,1]","[3,2]","[0,1]","[true,true,false,false]","0","3","false","[0.257670945924141,0.5647718392784629,0.30531822410499676,0.49054162745395036]","false","false","dawsTwoStep","131","416748","0.0-131.0"
"[0,1]","[2,3]","[2,3]","[false,true,false,true]","0","2","false","[0.29895056543801285,0.5936204186778368,0.29815126451506235,0.449180319006689]","false","true","dawsTwoStep","132","419866","0.0-132.0"
"[1,0]","[1,0]","[3,2]","[false,true,false,false]","1","2","false","[0.2812658324924413,0.6396160499322737,0.3191687208380957,0.5181375828514722]","true","true","dawsTwoStep","133","422739","0.0-133.0"
"[1,0]","[1,0]","[3,2]","[false,true,false,false]","1","3","false","[0.3236568630372182,0.5941788504418801,0.33145699955267105,0.5010629151698326]","true","true","dawsTwoStep","134","425543","0.0-134.0"
"[0,1]","[0,1]","[1,0]","[false,true,false,false]","0","1","true","[0.31844976899863936,0.6182979743715058,0.30299637319790396,0.48015447319505783]","true","false","dawsTwoStep","135","428667","0.0-135.0"
"[1,0]","[3,2]","[1,0]","[true,true,true,true]","0","3","true","[0.32951142005419587,0.6440303847493147,0.3319486395744621,0.5083378030800197]","false","false","dawsTwoStep","136","431629","0.0-136.0"
"[0,1]","[0,1]","[2,3]","[true,false,false,false]","1","3","false","[0.38723075878216867,0.6236030439078514,0.33768887634844863,0.5188700806840884]","true","true","dawsTwoStep","137","434962","0.0-137.0"
"[1,0]","[3,2]","[1,0]","[false,false,false,false]","1","1","false","[0.39488788242665807,0.6187356082694541,0.3366955098807745,0.549665005872459]","false","false","dawsTwoStep","138","438553","0.0-138.0"
"[0,1]","[1,0]","[3,2]","[true,true,false,true]","1","2","false","[0.37535996668842925,0.6452824501733835,0.3174261753641558,0.5675912852698501]","true","true","dawsTwoStep","139","441475","0.0-139.0"
"[0,1]","[1,0]","[3,2]","[false,false,true,false]","1","3","false","[0.383934925942769,0.6163366434663371,0.3366759150915249,0.5720048816878781]","true","true","dawsTwoStep","140","443748","0.0-140.0"
"[0,1]","[0,1]","[3,2]","[true,true,false,false]","0","0","true","[0.38640265630328435,0.6402147994164699,0.34892157529194445,0.5537010702221739]","true","true","dawsTwoStep","141","446743","0.0-141.0"
"[0,1]","[1,0]","[1,0]","[true,true,true,true]","0","0","true","[0.41428404389985646,0.6170423217242377,0.34395349969965106,0.5514373793666447]","true","false","dawsTwoStep","142","449186","0.0-142.0"
"[1,0]","[0,1]","[3,2]","[true,true,false,false]","0","0","true","[0.39706241192045455,0.6252775728136204,0.3490169795303666,0.5270816185244536]","true","true","dawsTwoStep","143","452224","0.0-143.0"
"[0,1]","[1,0]","[0,1]","[false,false,true,true]","0","0","false","[0.3991168850061626,0.6325832232714071,0.3526384645640079,0.526646340700172]","true","false","dawsTwoStep","144","455143","0.0-144.0"
"[1,0]","[0,1]","[1,0]","[false,true,true,false]","0","1","true","[0.39354221924788546,0.6228920442135785,0.3715276608743425,0.5256628217235421]","true","false","dawsTwoStep","145","458466","0.0-145.0"
"[0,1]","[3,2]","[2,3]","[false,false,false,false]","0","2","false","[0.39976589699993714,0.5902319406023608,0.38507194804627015,0.516472994400038]","false","true","dawsTwoStep","146","461781","0.0-146.0"
"[0,1]","[1,0]","[0,1]","[false,false,false,true]","0","1","false","[0.4132258623335821,0.6153232428005374,0.4085213435615253,0.5697049557229363]","true","false","dawsTwoStep","147","464086","0.0-147.0"
"[0,1]","[2,3]","[1,0]","[false,false,true,false]","0","2","true","[0.3796447123181889,0.6216892991042864,0.4141114478199891,0.5827593831264792]","false","false","dawsTwoStep","148","466826","0.0-148.0"
"[1,0]","[0,1]","[2,3]","[false,true,false,false]","1","2","false","[0.39530737401492594,0.5812169295779855,0.40918751128199515,0.5968758464651658]","true","true","dawsTwoStep","149","469802","0.0-149.0"
"[0,1]","[0,1]","[2,3]","[true,true,false,true]","1","2","false","[0.42751195704538,0.555360331023681,0.4215598436666691,0.6216716278913721]","true","true","dawsTwoStep","150","472551","0.0-150.0"
"[0,1]","[1,0]","[3,2]","[true,true,false,true]","1","3","true","[0.47024766478512303,0.5098301696111227,0.42894259176683386,0.6488725529697329]","true","true","dawsTwoStep","151","476469","0.0-151.0"
"[1,0]","[0,1]","[3,2]","[false,true,false,true]","1","3","true","[0.46542794078134864,0.48378807706799043,0.38811590551076863,0.6504699407652097]","true","true","dawsTwoStep","152","479326","0.0-152.0"
"[0,1]","[0,1]","[3,2]","[false,true,true,false]","1","3","false","[0.481382384992949,0.4843210332736935,0.4002864166705257,0.6176630390614969]","true","true","dawsTwoStep","153","482049","0.0-153.0"
"[1,0]","[2,3]","[0,1]","[true,false,false,true]","0","2","false","[0.5077316987355388,0.4979604119313906,0.41514555723376473,0.5922454194771261]","false","false","dawsTwoStep","154","484864","0.0-154.0"
"[1,0]","[3,2]","[0,1]","[false,true,false,false]","0","2","false","[0.5155085993031493,0.5009568375937951,0.4200986301015489,0.6000436961931714]","false","false","dawsTwoStep","155","487368","0.0-155.0"
"[0,1]","[0,1]","[3,2]","[false,false,true,false]","1","2","true","[0.5082530991540376,0.5337744288864976,0.44106340974927705,0.5966640372884482]","true","true","dawsTwoStep","156","489804","0.0-156.0"
"[0,1]","[1,0]","[2,3]","[false,false,true,true]","1","2","true","[0.5045465587826556,0.5436296826195208,0.4370468118567793,0.6429486922349966]","true","true","dawsTwoStep","157","492460","0.0-157.0"
"[1,0]","[2,3]","[1,0]","[false,false,false,false]","1","0","false","[0.4992922561610826,0.5546184880325467,0.4806125081992455,0.6421235441359924]","false","false","dawsTwoStep","158","496131","0.0-158.0"
"[1,0]","[0,1]","[0,1]","[true,false,true,true]","1","0","true","[0.47808269674289966,0.5928167722478124,0.4493133579252333,0.669039694069363]","true","false","dawsTwoStep","159","498674","0.0-159.0"
"[1,0]","[3,2]","[3,2]","[true,false,true,false]","0","2","true","[0.46784867323922835,0.5922508588389598,0.4319662656865409,0.6569785789257665]","false","true","dawsTwoStep","160","502716","0.0-160.0"
"[0,1]","[1,0]","[2,3]","[false,false,true,true]","0","1","false","[0.45313100020472,0.5675101584168083,0.4479423790744837,0.631121184416789]","true","true","dawsTwoStep","161","505556","0.0-161.0"
"[0,1]","[2,3]","[2,3]","[false,false,false,true]","0","2","false","[0.4512136394895573,0.5619885372408572,0.42485806080308464,0.6956300651761507]","false","true","dawsTwoStep","162","508345","0.0-162.0"
"[0,1]","[2,3]","[0,1]","[true,false,false,true]","0","2","false","[0.4636210184132719,0.5683569581144453,0.46978397159763474,0.7160625842556397]","false","false","dawsTwoStep","163","510719","0.0-163.0"
"[0,1]","[1,0]","[3,2]","[true,false,false,false]","0","1","false","[0.45486983492067484,0.555486457833551,0.48024298614331906,0.686815611884686]","true","true","dawsTwoStep","164","512941","0.0-164.0"
"[0,1]","[1,0]","[2,3]","[true,true,true,true]","0","0","true","[0.4621461315616154,0.5575591776402445,0.4852812197519086,0.6864732544575581]","true","true","dawsTwoStep","165","515605","0.0-165.0"
"[0,1]","[0,1]","[2,3]","[true,true,false,true]","0","0","true","[0.4052093097728222,0.5935715438383659,0.4648634688548527,0.6808709585807805]","true","true","dawsTwoStep","166","517845","0.0-166.0"
"[1,0]","[0,1]","[3,2]","[false,false,false,false]","0","0","false","[0.3889673553932038,0.6254766131074849,0.4277126208362982,0.6506035871859175]","true","true","dawsTwoStep","167","520864","0.0-167.0"
"[1,0]","[1,0]","[2,3]","[false,true,false,true]","0","0","false","[0.39549123023222177,0.6374718409031596,0.4265250810006296,0.6769480437740338]","true","true","dawsTwoStep","168","523843","0.0-168.0"
"[0,1]","[0,1]","[1,0]","[true,true,false,false]","1","1","true","[0.43185135048603523,0.6259956331335149,0.4571770013082902,0.6796765614219229]","true","false","dawsTwoStep","169","527216","0.0-169.0"
"[1,0]","[0,1]","[3,2]","[false,false,false,false]","0","1","false","[0.49637725222218704,0.6369976515675384,0.4394376797089558,0.6767644657919714]","true","true","dawsTwoStep","170","529824","0.0-170.0"
"[1,0]","[1,0]","[2,3]","[true,true,true,true]","1","2","true","[0.507767764554932,0.6219442746478053,0.4498435621165332,0.6645077035362964]","true","true","dawsTwoStep","171","532848","0.0-171.0"
"[1,0]","[1,0]","[2,3]","[true,false,false,true]","1","2","false","[0.5156582937240254,0.592012287478613,0.4373808148476116,0.6669770524160044]","true","true","dawsTwoStep","172","535069","0.0-172.0"
"[1,0]","[3,2]","[2,3]","[true,true,false,true]","1","3","true","[0.5347574239417563,0.5791843813700281,0.4381799832627723,0.6864911777196858]","false","true","dawsTwoStep","173","537179","0.0-173.0"
"[0,1]","[0,1]","[3,2]","[true,true,false,true]","1","3","true","[0.5164301298797365,0.5708433584258947,0.42422393799073,0.6805151592051696]","true","true","dawsTwoStep","174","540547","0.0-174.0"
"[0,1]","[1,0]","[2,3]","[false,false,false,true]","1","3","true","[0.535084898288465,0.5737909689514171,0.40040777854330795,0.7020498002540407]","true","true","dawsTwoStep","175","542973","0.0-175.0"
"[0,1]","[1,0]","[2,3]","[true,false,false,false]","1","3","false","[0.47376924817928523,0.5361362476978985,0.4133333502457252,0.7033493846975957]","true","true","dawsTwoStep","176","545263","0.0-176.0"
"[1,0]","[0,1]","[2,3]","[true,false,true,false]","1","2","true","[0.4638682099333878,0.5611070826463991,0.41929349829280615,0.7365730226457959]","true","true","dawsTwoStep","177","548205","0.0-177.0"
"[1,0]","[1,0]","[2,3]","[true,true,true,false]","1","2","true","[0.4760045992643829,0.5577017522341157,0.39599205258288855,0.75]","true","true","dawsTwoStep","178","550303","0.0-178.0"
"[1,0]","[0,1]","[3,2]","[false,false,false,false]","1","2","false","[0.4747657996767486,0.5497175641392879,0.41593678067869444,0.75]","true","true","dawsTwoStep","179","552615","0.0-179.0"
"[1,0]","[0,1]","[2,3]","[false,true,false,true]","1","2","false","[0.4559299085271704,0.5882684489846302,0.38399357636964854,0.75]","true","true","dawsTwoStep","180","555544","0.0-180.0"
"[0,1]","[0,1]","[1,0]","[true,true,false,true]","0","0","true","[0.4227397930410772,0.5764162336210814,0.3703995137135674,0.75]","true","false","dawsTwoStep","181","558887","0.0-181.0"
"[0,1]","[0,1]","[2,3]","[false,true,false,true]","0","0","false","[0.47486651351510895,0.6185748143858827,0.40192869996320985,0.75]","true","true","dawsTwoStep","182","561316","0.0-182.0"
"[0,1]","[1,0]","[0,1]","[true,false,false,false]","0","0","true","[0.4498092025260852,0.5968330445254565,0.40861296432821537,0.7247478130348922]","true","false","dawsTwoStep","183","564617","0.0-183.0"
"[1,0]","[0,1]","[3,2]","[false,true,false,true]","0","0","false","[0.44354348661803816,0.5530750502262688,0.39563035431044724,0.75]","true","true","dawsTwoStep","184","567698","0.0-184.0"
"[0,1]","[1,0]","[1,0]","[true,true,false,true]","1","0","true","[0.39306800206953724,0.538290090746996,0.4059912059767823,0.6919627354670514]","true","false","dawsTwoStep","185","570856","0.0-185.0"
"[1,0]","[0,1]","[2,3]","[false,false,true,true]","0","0","false","[0.36561619201023227,0.533353397556615,0.44051445131968836,0.7056245986679948]","true","true","dawsTwoStep","186","573535","0.0-186.0"
"[0,1]","[3,2]","[2,3]","[true,false,false,false]","0","2","false","[0.37138634596726505,0.5226304585644725,0.4194969482116018,0.6728613591055406]","false","true","dawsTwoStep","187","577217","0.0-187.0"
"[1,0]","[1,0]","[0,1]","[true,false,false,false]","0","1","false","[0.3722316475849862,0.49598648780142307,0.42422337365796414,0.6768174417117236]","true","false","dawsTwoStep","188","580159","0.0-188.0"
"[1,0]","[0,1]","[2,3]","[false,true,true,false]","1","2","true","[0.3815484465079222,0.47546911902287337,0.414437616403769,0.6663714789602785]","true","true","dawsTwoStep","189","583162","0.0-189.0"
"[0,1]","[2,3]","[2,3]","[true,true,false,false]","1","2","false","[0.394304118374189,0.48885354666822756,0.4373560605442872,0.6711283063408943]","false","true","dawsTwoStep","190","585746","0.0-190.0"
"[0,1]","[0,1]","[3,2]","[false,false,false,true]","1","2","false","[0.4297610386842673,0.48809192258719303,0.4474637736301402,0.682286392227221]","true","true","dawsTwoStep","191","588625","0.0-191.0"
"[1,0]","[1,0]","[3,2]","[false,true,true,true]","1","3","true","[0.4093762561594538,0.4577409579600714,0.4606967479454238,0.6777406259655432]","true","true","dawsTwoStep","192","591642","0.0-192.0"
"[0,1]","[1,0]","[3,2]","[true,false,false,true]","1","3","true","[0.4395217983374674,0.3840689820829032,0.46176823187230487,0.6467624473572281]","true","true","dawsTwoStep","193","594756","0.0-193.0"
"[0,1]","[2,3]","[3,2]","[true,false,false,false]","1","3","false","[0.4519315299866144,0.3605630222250699,0.46065715976017135,0.7142499903530614]","false","true","dawsTwoStep","194","597209","0.0-194.0"
"[1,0]","[1,0]","[2,3]","[true,false,false,true]","0","0","true","[0.4884984631139025,0.3819517496190954,0.43167843299611236,0.6929783559921406]","true","true","dawsTwoStep","195","601166","0.0-195.0"
"[1,0]","[3,2]","[3,2]","[true,false,false,true]","0","3","true","[0.5163647268866471,0.4042345221167362,0.41134475782527197,0.6955411615987788]","false","true","dawsTwoStep","196","603987","0.0-196.0"
"[0,1]","[0,1]","[3,2]","[true,false,true,false]","1","3","false","[0.5032846344784961,0.37385075937740486,0.3797212903000703,0.701894745848202]","true","true","dawsTwoStep","197","606489","0.0-197.0"
"[1,0]","[0,1]","[3,2]","[false,true,false,true]","1","3","true","[0.48601447881931953,0.3847918292046836,0.3654445905433975,0.7083233205966286]","true","true","dawsTwoStep","198","610170","0.0-198.0"
"[0,1]","[1,0]","[3,2]","[true,true,true,false]","1","3","false","[0.46297253847455105,0.36853048505601327,0.35863591430850844,0.7189734487826958]","true","true","dawsTwoStep","199","612950","0.0-199.0"
