"stepOne_Param","stepOneTwo_Param","stepTwoTwo_Param","rewards_Param","stepOneChoice","stepTwoChoice","reward","rewardProbabilities","isHighProbOne","isHighProbTwo","trial_type","trial_index","time_elapsed","internal_node_id"
"[0,1]","[0,1]","[3,2]","[false,false,false,false]","0","0","false","[0.7274094002898206,0.26645336294151906,0.5994610876607065,0.5066740778277818]","true","true","dawsTwoStep","0","4744","0.0-0.0"
"[0,1]","[0,1]","[3,2]","[true,true,false,true]","0","1","true","[0.6793476706490504,0.27989138337576236,0.6099007887088513,0.49184692783364703]","true","true","dawsTwoStep","1","7710","0.0-1.0"
"[1,0]","[0,1]","[0,1]","[true,false,false,true]","0","0","true","[0.6835488021845835,0.30020821867751446,0.6718129453102047,0.4675885290802989]","true","false","dawsTwoStep","2","15537","0.0-2.0"
"[0,1]","[1,0]","[2,3]","[true,false,true,true]","1","3","true","[0.6837508454854566,0.3027867956794711,0.655451033598325,0.46815947084297144]","true","true","dawsTwoStep","3","17880","0.0-3.0"
"[0,1]","[0,1]","[3,2]","[true,false,true,false]","0","0","true","[0.75,0.31836295198105474,0.6394973118455461,0.46739257693336533]","true","true","dawsTwoStep","4","20235","0.0-4.0"
"[0,1]","[2,3]","[1,0]","[true,false,false,true]","0","3","true","[0.735052175746743,0.30541995338929995,0.6425943196791072,0.4622687238239582]","false","false","dawsTwoStep","5","22600","0.0-5.0"
"[1,0]","[1,0]","[2,3]","[true,true,false,false]","0","1","true","[0.7208055761507729,0.32424569136131665,0.6536687147192618,0.5012119477678212]","true","true","dawsTwoStep","6","26252","0.0-6.0"
"[1,0]","[1,0]","[2,3]","[true,true,false,false]","0","0","true","[0.6991240501770319,0.31087255863656066,0.6341680685648812,0.541631282065707]","true","true","dawsTwoStep","7","28783","0.0-7.0"
"[0,1]","[0,1]","[2,3]","[false,false,false,true]","0","0","false","[0.6903504459735095,0.30093315950994287,0.6547909644017398,0.5271186134753765]","true","true","dawsTwoStep","8","30988","0.0-8.0"
"[0,1]","[3,2]","[3,2]","[true,true,true,true]","0","2","true","[0.6805972011380731,0.3223523957289798,0.6896592696776594,0.49692086605989205]","false","true","dawsTwoStep","9","33760","0.0-9.0"
"[1,0]","[1,0]","[3,2]","[true,false,false,true]","0","1","false","[0.6902333438353717,0.2828197674797862,0.6741576705783145,0.5028665735558914]","true","true","dawsTwoStep","10","35917","0.0-10.0"
"[1,0]","[3,2]","[2,3]","[true,true,true,true]","0","2","true","[0.674434284658202,0.2730149928782476,0.6462761418751142,0.4877510370020971]","false","true","dawsTwoStep","11","38177","0.0-11.0"
"[1,0]","[2,3]","[2,3]","[false,false,true,true]","1","2","true","[0.7020003155910309,0.25,0.6420876704387616,0.4925974894022482]","false","true","dawsTwoStep","12","40286","0.0-12.0"
"[0,1]","[2,3]","[3,2]","[false,true,true,false]","0","3","false","[0.6670049275232884,0.25,0.627482215273864,0.4861424200764883]","false","true","dawsTwoStep","13","42745","0.0-13.0"
"[1,0]","[3,2]","[2,3]","[true,false,true,true]","0","3","true","[0.644732313222006,0.25,0.6186443475403486,0.48256917351533835]","false","true","dawsTwoStep","14","44771","0.0-14.0"
"[1,0]","[2,3]","[2,3]","[true,true,false,false]","0","3","false","[0.6276950792615152,0.25,0.6791537396260361,0.4864078254813143]","false","true","dawsTwoStep","15","47203","0.0-15.0"
"[1,0]","[2,3]","[0,1]","[true,false,true,false]","1","0","true","[0.6292304366705482,0.2676544626298094,0.7057149091028907,0.48875555858418435]","false","false","dawsTwoStep","16","49607","0.0-16.0"
"[1,0]","[0,1]","[1,0]","[true,false,false,false]","1","0","true","[0.6500753713119164,0.27350649631377727,0.7193078040603923,0.49695692989161533]","true","false","dawsTwoStep","17","51979","0.0-17.0"
"[0,1]","[2,3]","[2,3]","[true,false,true,true]","1","2","true","[0.6397522422407568,0.27741087266775905,0.6781022199071971,0.47395280497671977]","false","true","dawsTwoStep","18","54557","0.0-18.0"
"[1,0]","[3,2]","[0,1]","[true,false,false,true]","0","2","false","[0.6640366585446894,0.30021110872506723,0.719128464577017,0.48644382443765444]","false","false","dawsTwoStep","19","56993","0.0-19.0"
"[1,0]","[0,1]","[2,3]","[true,true,true,false]","1","2","true","[0.6412775386729954,0.2847348810592859,0.6980873646266316,0.494541672116878]","true","true","dawsTwoStep","20","59644","0.0-20.0"
"[1,0]","[1,0]","[2,3]","[false,false,false,true]","1","3","true","[0.6026069018811828,0.2601710071072309,0.6844382839685406,0.505237877508174]","true","true","dawsTwoStep","21","62228","0.0-21.0"
"[0,1]","[3,2]","[3,2]","[false,true,true,false]","1","3","false","[0.5769566738993464,0.25,0.6732538202605589,0.46774537456803056]","false","true","dawsTwoStep","22","64704","0.0-22.0"
"[0,1]","[1,0]","[3,2]","[false,false,true,false]","1","2","true","[0.5246292998733273,0.25,0.6980738825063199,0.4642652546004814]","true","true","dawsTwoStep","23","67074","0.0-23.0"
"[1,0]","[1,0]","[2,3]","[true,true,true,true]","1","2","true","[0.525276831126713,0.25,0.6821443633414084,0.46168230508411945]","true","true","dawsTwoStep","24","71209","0.0-24.0"
"[0,1]","[1,0]","[3,2]","[true,false,true,false]","1","3","false","[0.521848144061741,0.25,0.6538930721928835,0.4595261375795365]","true","true","dawsTwoStep","25","79603","0.0-25.0"
"[0,1]","[1,0]","[3,2]","[false,false,true,false]","1","2","true","[0.5646846092454413,0.25,0.6870232250605193,0.4517495357997613]","true","true","dawsTwoStep","26","82376","0.0-26.0"
"[1,0]","[1,0]","[3,2]","[false,true,true,false]","1","3","false","[0.5491253122221631,0.29037110371245445,0.6906336958333312,0.4590989171369269]","true","true","dawsTwoStep","27","85038","0.0-27.0"
"[0,1]","[0,1]","[1,0]","[false,false,true,true]","0","1","false","[0.5488752969389014,0.29639956848615673,0.687034903768854,0.42143053804737407]","true","false","dawsTwoStep","28","88159","0.0-28.0"
"[1,0]","[1,0]","[3,2]","[true,true,true,true]","0","1","true","[0.5317284160624378,0.2756924371943218,0.6965182302251663,0.3897518100714654]","true","true","dawsTwoStep","29","92660","0.0-29.0"
"[0,1]","[0,1]","[1,0]","[false,false,false,false]","1","0","false","[0.5043867047809281,0.280257495997981,0.6829728676279989,0.3538781597955323]","true","false","dawsTwoStep","30","95601","0.0-30.0"
"[0,1]","[0,1]","[2,3]","[false,false,true,true]","0","0","false","[0.5363063985801666,0.25,0.6770998419400817,0.35738980716737334]","true","true","dawsTwoStep","31","97658","0.0-31.0"
"[1,0]","[1,0]","[2,3]","[true,false,true,true]","1","3","true","[0.5351731940350581,0.25,0.6753573312304788,0.31893998104027754]","true","true","dawsTwoStep","32","99923","0.0-32.0"
"[1,0]","[0,1]","[0,1]","[true,false,true,true]","0","0","true","[0.5823728535608231,0.2568672518915954,0.6761983369164027,0.3219687902718304]","true","false","dawsTwoStep","33","102144","0.0-33.0"
"[1,0]","[2,3]","[1,0]","[true,false,true,true]","0","3","true","[0.6018586616882902,0.2906795213459657,0.6738732383553399,0.3127339927816068]","false","false","dawsTwoStep","34","104616","0.0-34.0"
"[1,0]","[2,3]","[3,2]","[false,false,true,true]","1","3","true","[0.573849361116493,0.29111523662889954,0.6867692737319312,0.29252186082116766]","false","true","dawsTwoStep","35","106986","0.0-35.0"
"[0,1]","[0,1]","[3,2]","[false,false,true,false]","0","1","false","[0.5170291623553512,0.2961679386256565,0.6640119672860584,0.28689017176100773]","true","true","dawsTwoStep","36","109429","0.0-36.0"
"[0,1]","[1,0]","[2,3]","[false,true,true,false]","1","2","true","[0.4723542347911358,0.31097268153586977,0.6217275855494251,0.33850974195178746]","true","true","dawsTwoStep","37","111727","0.0-37.0"
"[1,0]","[0,1]","[3,2]","[false,false,true,true]","0","1","false","[0.4969169750472159,0.2993810817135057,0.6560209861019884,0.3094547052812645]","true","true","dawsTwoStep","38","114114","0.0-38.0"
"[0,1]","[0,1]","[1,0]","[true,false,true,false]","0","0","true","[0.48443603154315446,0.2872447513143833,0.663842288792182,0.3164063963003803]","true","false","dawsTwoStep","39","117082","0.0-39.0"
"[0,1]","[2,3]","[2,3]","[false,false,false,false]","0","3","false","[0.4837512479386404,0.34519186277331687,0.6791568712677764,0.34782140099640074]","false","true","dawsTwoStep","40","119505","0.0-40.0"
"[0,1]","[2,3]","[3,2]","[true,true,true,true]","1","3","true","[0.4901190939421317,0.37417116650111343,0.7013620266612461,0.35708024462289106]","false","true","dawsTwoStep","41","121656","0.0-41.0"
"[1,0]","[0,1]","[3,2]","[false,false,true,true]","0","1","false","[0.4604656225109179,0.34704925528399255,0.658381274524425,0.37452032483833786]","true","true","dawsTwoStep","42","123997","0.0-42.0"
"[0,1]","[0,1]","[3,2]","[false,false,true,false]","0","0","false","[0.457291310136818,0.3556913872114629,0.6430906854014883,0.34469490484870674]","true","true","dawsTwoStep","43","126530","0.0-43.0"
"[1,0]","[2,3]","[0,1]","[false,true,true,false]","1","1","true","[0.41581547330593605,0.38997346868710714,0.6759050104722293,0.34457510314481743]","false","false","dawsTwoStep","44","129012","0.0-44.0"
"[1,0]","[1,0]","[2,3]","[false,false,false,true]","0","1","false","[0.3953202767256368,0.36831910262335243,0.6836663069590716,0.3512902775420322]","true","true","dawsTwoStep","45","131875","0.0-45.0"
"[0,1]","[1,0]","[0,1]","[false,false,true,false]","1","1","false","[0.3826073643918818,0.3646519279543614,0.6804943884616808,0.3666437786126988]","true","false","dawsTwoStep","46","134380","0.0-46.0"
"[0,1]","[0,1]","[1,0]","[false,true,false,false]","0","0","false","[0.364629272881648,0.35353161745546274,0.6742607504413412,0.407314808989587]","true","false","dawsTwoStep","47","136639","0.0-47.0"
"[1,0]","[3,2]","[1,0]","[false,true,false,false]","1","0","false","[0.40547365457541507,0.385476065818272,0.6804963750495739,0.44034555978605716]","false","false","dawsTwoStep","48","139098","0.0-48.0"
"[1,0]","[0,1]","[3,2]","[false,false,false,false]","0","0","false","[0.4398809864263301,0.3694282123883462,0.6749517155377247,0.441516273715248]","true","true","dawsTwoStep","49","141951","0.0-49.0"
"[1,0]","[3,2]","[1,0]","[true,false,false,true]","0","2","false","[0.3794598526567188,0.3697171602433099,0.6624148023867554,0.4627010239997345]","false","false","dawsTwoStep","50","144234","0.0-50.0"
"[1,0]","[2,3]","[1,0]","[true,false,true,true]","1","1","false","[0.3750276412125465,0.3717344483422198,0.6875853966889105,0.45355614222643387]","false","false","dawsTwoStep","51","147724","0.0-51.0"
"[1,0]","[1,0]","[2,3]","[false,true,true,true]","1","3","true","[0.4147437747200301,0.33907976443805055,0.6659377174421449,0.4783154314363144]","true","true","dawsTwoStep","52","150210","0.0-52.0"
"[0,1]","[0,1]","[3,2]","[false,false,true,false]","1","3","false","[0.39349278806200194,0.35515984215309243,0.5990570060953355,0.4420067994858665]","true","true","dawsTwoStep","53","152568","0.0-53.0"
"[1,0]","[1,0]","[2,3]","[true,false,true,false]","0","0","true","[0.4087689691212605,0.368611801722539,0.6254192110692565,0.4555470676429082]","true","true","dawsTwoStep","54","154950","0.0-54.0"
"[1,0]","[1,0]","[2,3]","[true,false,true,true]","1","2","true","[0.4081148412264465,0.37348249431106945,0.6112493591155707,0.4136491718974916]","true","true","dawsTwoStep","55","157184","0.0-55.0"
"[0,1]","[0,1]","[1,0]","[true,true,true,true]","0","1","true","[0.4159402292739577,0.3475342598195112,0.6400298237332301,0.3747641634383053]","true","false","dawsTwoStep","56","159598","0.0-56.0"
"[1,0]","[0,1]","[2,3]","[true,false,false,false]","0","0","true","[0.48155866836706773,0.33421433270778106,0.6550132906343448,0.39977808005614424]","true","true","dawsTwoStep","57","162042","0.0-57.0"
"[1,0]","[0,1]","[3,2]","[true,false,true,false]","0","1","false","[0.515216146153906,0.31092388207188704,0.6807353879615979,0.39985850696434]","true","true","dawsTwoStep","58","164315","0.0-58.0"
"[1,0]","[2,3]","[3,2]","[false,false,true,false]","1","3","false","[0.5084516658885992,0.33431090799613306,0.6172011529582487,0.43058257701328523]","false","true","dawsTwoStep","59","166861","0.0-59.0"
"[1,0]","[3,2]","[2,3]","[true,false,false,false]","1","3","false","[0.5377402279607699,0.3331186517996798,0.6327983706462573,0.41208430804185414]","false","true","dawsTwoStep","60","169104","0.0-60.0"
"[1,0]","[0,1]","[2,3]","[true,false,true,false]","0","0","true","[0.560124172655951,0.30283075842400276,0.6618084607509627,0.4461450412653783]","true","true","dawsTwoStep","61","171349","0.0-61.0"
"[1,0]","[0,1]","[3,2]","[true,true,false,false]","0","1","true","[0.5658962656093065,0.30415456912009114,0.6737551787416283,0.4745299293825257]","true","true","dawsTwoStep","62","173627","0.0-62.0"
"[1,0]","[1,0]","[0,1]","[false,false,false,false]","1","0","false","[0.540166767328081,0.29177626949514485,0.653062511168119,0.48072368428326884]","true","false","dawsTwoStep","63","176430","0.0-63.0"
"[0,1]","[2,3]","[2,3]","[true,false,true,false]","0","3","false","[0.5317293971633839,0.3076734010316715,0.682200313898719,0.4675271330128616]","false","true","dawsTwoStep","64","179239","0.0-64.0"
"[1,0]","[0,1]","[2,3]","[true,false,false,true]","0","0","true","[0.5569490951205133,0.3118875947248802,0.7043984449935085,0.4802632260665548]","true","true","dawsTwoStep","65","182078","0.0-65.0"
"[1,0]","[2,3]","[2,3]","[true,false,true,true]","0","3","true","[0.521007740207235,0.29678762672225467,0.6953883801934714,0.4615283290572413]","false","true","dawsTwoStep","66","184447","0.0-66.0"
"[0,1]","[3,2]","[3,2]","[true,false,true,true]","0","3","true","[0.5179556117061572,0.33171884874776314,0.7298590164161799,0.4550176054663001]","false","true","dawsTwoStep","67","186744","0.0-67.0"
"[0,1]","[3,2]","[3,2]","[false,true,true,true]","0","2","true","[0.5118874440961148,0.31244447185328805,0.7065746452601954,0.49300186542098834]","false","true","dawsTwoStep","68","189244","0.0-68.0"
"[0,1]","[2,3]","[3,2]","[false,false,true,false]","1","3","false","[0.5009191294552344,0.3291753982028659,0.749271349849044,0.5074499483846152]","false","true","dawsTwoStep","69","191592","0.0-69.0"
"[0,1]","[3,2]","[2,3]","[true,false,false,true]","1","3","true","[0.5047361584081912,0.3425437859743665,0.75,0.5255433384617242]","false","true","dawsTwoStep","70","194073","0.0-70.0"
"[0,1]","[0,1]","[1,0]","[false,true,true,false]","0","0","false","[0.5065109833860623,0.33815217818109056,0.75,0.5530246369728884]","true","false","dawsTwoStep","71","196232","0.0-71.0"
"[1,0]","[1,0]","[0,1]","[true,true,false,true]","1","1","true","[0.5180460800817105,0.3440552885999563,0.75,0.5558355121961062]","true","false","dawsTwoStep","72","198533","0.0-72.0"
"[0,1]","[1,0]","[2,3]","[false,true,false,false]","1","2","false","[0.49955795195498953,0.2983219009266816,0.75,0.5876193827879818]","true","true","dawsTwoStep","73","201250","0.0-73.0"
"[0,1]","[1,0]","[2,3]","[false,true,true,false]","1","3","false","[0.46692279883811366,0.36438038766993763,0.75,0.5881213175114741]","true","true","dawsTwoStep","74","203610","0.0-74.0"
"[1,0]","[0,1]","[1,0]","[false,true,true,true]","1","1","true","[0.5147459248921029,0.3536059223457912,0.7423074932212629,0.6311680235736358]","true","false","dawsTwoStep","75","205807","0.0-75.0"
"[0,1]","[3,2]","[2,3]","[true,false,true,false]","0","2","true","[0.5317109332737182,0.35019724628249266,0.7263288552400418,0.6166878241347727]","false","true","dawsTwoStep","76","208118","0.0-76.0"
"[1,0]","[1,0]","[3,2]","[true,false,false,true]","0","1","false","[0.5659714460833809,0.3975312539023649,0.75,0.6509499829058643]","true","true","dawsTwoStep","77","210577","0.0-77.0"
"[0,1]","[2,3]","[3,2]","[false,true,false,false]","1","2","false","[0.5534678889904099,0.4239315190426476,0.7477323274090276,0.6309830099023579]","false","true","dawsTwoStep","78","212811","0.0-78.0"
"[1,0]","[0,1]","[2,3]","[true,false,true,true]","1","2","true","[0.497557373204111,0.4253422154041504,0.7332297114826352,0.6108640273309255]","true","true","dawsTwoStep","79","215445","0.0-79.0"
"[1,0]","[1,0]","[0,1]","[false,false,true,true]","1","1","false","[0.5033243266169593,0.41055386164386015,0.75,0.6262701028169194]","true","false","dawsTwoStep","80","217753","0.0-80.0"
"[0,1]","[3,2]","[2,3]","[true,true,true,false]","1","2","true","[0.4900851241710762,0.4095655326836225,0.7463979787919246,0.620163204225527]","false","true","dawsTwoStep","81","220034","0.0-81.0"
"[1,0]","[1,0]","[2,3]","[false,true,false,true]","0","0","false","[0.4785138198215466,0.37596563807549765,0.75,0.5838921978722763]","true","true","dawsTwoStep","82","222239","0.0-82.0"
"[0,1]","[1,0]","[3,2]","[true,false,true,true]","0","1","false","[0.4871333156495294,0.35865944495645596,0.7014658463500906,0.5687269838259535]","true","true","dawsTwoStep","83","224496","0.0-83.0"
"[1,0]","[1,0]","[2,3]","[false,true,false,true]","1","3","true","[0.4498949889665935,0.361942374128687,0.7058651317051344,0.6059672300872967]","true","true","dawsTwoStep","84","226824","0.0-84.0"
"[1,0]","[1,0]","[3,2]","[false,false,true,true]","0","1","false","[0.4990681169787579,0.3520145791941917,0.717485075949202,0.5728606242528521]","true","true","dawsTwoStep","85","229237","0.0-85.0"
"[0,1]","[1,0]","[0,1]","[true,false,true,false]","1","1","false","[0.49787065462050495,0.33882186392918967,0.7022707299505712,0.5890004820999263]","true","false","dawsTwoStep","86","231682","0.0-86.0"
"[1,0]","[0,1]","[2,3]","[true,true,true,true]","1","2","true","[0.4903069485634669,0.31041940170956334,0.7471109269289825,0.5334173043491364]","true","true","dawsTwoStep","87","234054","0.0-87.0"
"[0,1]","[1,0]","[3,2]","[false,false,false,false]","0","0","false","[0.4844378971792473,0.3599630010175869,0.7413338872717924,0.521331387611483]","true","true","dawsTwoStep","88","236430","0.0-88.0"
"[1,0]","[1,0]","[2,3]","[false,false,true,false]","0","1","false","[0.5260859097154944,0.35867795284708764,0.75,0.5250332858974932]","true","true","dawsTwoStep","89","238868","0.0-89.0"
"[0,1]","[1,0]","[2,3]","[false,true,true,true]","1","3","true","[0.5092328736257901,0.32007209970436856,0.75,0.5747196633546539]","true","true","dawsTwoStep","90","241164","0.0-90.0"
"[0,1]","[1,0]","[0,1]","[false,true,true,true]","0","1","true","[0.5076710760293998,0.28055002549122504,0.732408021851524,0.5702604854669205]","true","false","dawsTwoStep","91","243528","0.0-91.0"
"[0,1]","[1,0]","[2,3]","[true,true,false,false]","0","0","true","[0.516209333751786,0.2512844020006049,0.723476955871098,0.5634454001030997]","true","true","dawsTwoStep","92","245743","0.0-92.0"
"[0,1]","[0,1]","[1,0]","[false,true,true,false]","1","1","true","[0.5278122709709461,0.25,0.75,0.5492042803298915]","true","false","dawsTwoStep","93","248127","0.0-93.0"
"[0,1]","[0,1]","[1,0]","[false,false,false,false]","1","0","false","[0.5298142371413987,0.25,0.7368499117827856,0.5388500931543618]","true","false","dawsTwoStep","94","250360","0.0-94.0"
"[0,1]","[1,0]","[0,1]","[true,false,true,true]","0","1","false","[0.5404333160553123,0.25,0.7492107784856485,0.5080669152678154]","true","false","dawsTwoStep","95","253002","0.0-95.0"
"[0,1]","[1,0]","[3,2]","[true,false,true,true]","0","0","true","[0.5824093072941396,0.25627457057265096,0.75,0.4937697445430095]","true","true","dawsTwoStep","96","255271","0.0-96.0"
"[1,0]","[0,1]","[2,3]","[true,true,false,true]","0","0","true","[0.5572819259287456,0.2735811673794267,0.7409364823775507,0.4564085110179076]","true","true","dawsTwoStep","97","257576","0.0-97.0"
"[1,0]","[0,1]","[3,2]","[true,false,true,false]","0","1","false","[0.608259383498529,0.26139356996644203,0.75,0.4701276090387807]","true","true","dawsTwoStep","98","259852","0.0-98.0"
"[0,1]","[2,3]","[0,1]","[true,false,false,true]","0","2","false","[0.6283075339425168,0.25,0.6990627466104522,0.5213786451578615]","false","false","dawsTwoStep","99","262088","0.0-99.0"
"[0,1]","[0,1]","[3,2]","[false,true,true,true]","0","1","true","[0.6257829945171502,0.2675073711192715,0.676340871189843,0.5130533095983337]","true","true","dawsTwoStep","100","264401","0.0-100.0"
"[0,1]","[0,1]","[0,1]","[true,false,true,true]","1","0","true","[0.6179328803608405,0.29335851650498224,0.6880902371217452,0.5504391639578559]","true","false","dawsTwoStep","101","268318","0.0-101.0"
"[0,1]","[1,0]","[3,2]","[false,false,true,true]","1","2","true","[0.5957131684736235,0.29536703126417796,0.6614804778338933,0.5313441131255578]","true","true","dawsTwoStep","102","270569","0.0-102.0"
"[1,0]","[1,0]","[3,2]","[false,false,true,true]","1","3","true","[0.6319883465965958,0.3024187399920817,0.6226146100418939,0.5683998127410774]","true","true","dawsTwoStep","103","273898","0.0-103.0"
"[0,1]","[0,1]","[0,1]","[false,true,true,false]","0","1","true","[0.6428820396257787,0.28297775642574885,0.6324598892250214,0.5602850171106412]","true","false","dawsTwoStep","104","276183","0.0-104.0"
"[0,1]","[0,1]","[3,2]","[false,true,false,false]","1","3","false","[0.6576261413194666,0.33524822985280783,0.6242518073367155,0.5380389576042492]","true","true","dawsTwoStep","105","278793","0.0-105.0"
"[1,0]","[0,1]","[3,2]","[true,true,false,false]","0","1","true","[0.6748272044647501,0.31650121498991246,0.606308598343902,0.5163548528851399]","true","true","dawsTwoStep","106","280996","0.0-106.0"
"[0,1]","[1,0]","[1,0]","[false,false,false,true]","0","1","false","[0.6593497113336083,0.29567468318711615,0.6544947698886786,0.5419471928346029]","true","false","dawsTwoStep","107","283403","0.0-107.0"
"[1,0]","[1,0]","[2,3]","[true,false,false,true]","1","3","true","[0.6451856772373907,0.3259894125923104,0.6686630918330584,0.5851918736481629]","true","true","dawsTwoStep","108","285863","0.0-108.0"
"[1,0]","[1,0]","[3,2]","[true,false,true,false]","0","1","false","[0.6384410636677802,0.3157871509904783,0.6709094888666555,0.592772567003992]","true","true","dawsTwoStep","109","288214","0.0-109.0"
"[0,1]","[3,2]","[0,1]","[false,false,true,true]","1","1","false","[0.6216267360055842,0.3037271751273412,0.679626541902807,0.6082016462543257]","false","false","dawsTwoStep","110","290513","0.0-110.0"
"[1,0]","[2,3]","[3,2]","[true,false,true,true]","1","3","true","[0.5845875795596356,0.3072364703193414,0.6408860713866098,0.6119977245221686]","false","true","dawsTwoStep","111","292985","0.0-111.0"
"[1,0]","[3,2]","[3,2]","[true,false,false,false]","1","2","false","[0.5867490466288647,0.27866068335445976,0.649678583528862,0.67668288515994]","false","true","dawsTwoStep","112","295143","0.0-112.0"
"[1,0]","[0,1]","[0,1]","[true,false,true,true]","0","0","true","[0.5906809255505604,0.25680751479019986,0.6604264969481783,0.6834935198726703]","true","false","dawsTwoStep","113","297741","0.0-113.0"
"[1,0]","[0,1]","[2,3]","[true,false,false,true]","0","1","false","[0.5583628228499768,0.28181603179179376,0.642516073430573,0.6662948389998048]","true","true","dawsTwoStep","114","300131","0.0-114.0"
"[0,1]","[0,1]","[3,2]","[true,false,true,false]","0","0","true","[0.5091396654670406,0.3094036762105977,0.6193408468758764,0.6751396409863842]","true","true","dawsTwoStep","115","302856","0.0-115.0"
"[0,1]","[0,1]","[3,2]","[true,false,true,false]","0","1","false","[0.5325524167876815,0.3316126944961692,0.6681473800344261,0.6480907490225893]","true","true","dawsTwoStep","116","305178","0.0-116.0"
"[1,0]","[0,1]","[2,3]","[true,false,true,false]","0","0","true","[0.5101587476232198,0.32313686046310147,0.6610930868685071,0.6410345934900881]","true","true","dawsTwoStep","117","308260","0.0-117.0"
"[1,0]","[1,0]","[3,2]","[true,true,false,true]","0","0","true","[0.5110907115744291,0.3014831880041034,0.6915324397447241,0.5764325527768763]","true","true","dawsTwoStep","118","310508","0.0-118.0"
"[1,0]","[3,2]","[2,3]","[true,true,true,true]","1","2","true","[0.5090615214445303,0.34741126701999686,0.7185418418862224,0.5532440459513055]","false","true","dawsTwoStep","119","312855","0.0-119.0"
"[1,0]","[0,1]","[2,3]","[true,true,true,true]","1","3","true","[0.4954977066944139,0.3697593807267001,0.6476620280917089,0.5255157723390637]","true","true","dawsTwoStep","120","315174","0.0-120.0"
"[0,1]","[1,0]","[2,3]","[true,false,false,true]","1","2","false","[0.5265238661457561,0.41330850151103055,0.6624492424200529,0.5541044270466384]","true","true","dawsTwoStep","121","317650","0.0-121.0"
"[1,0]","[1,0]","[1,0]","[true,true,true,true]","0","0","true","[0.5168338201915582,0.41079432780319436,0.6592463724417845,0.5851867915001033]","true","false","dawsTwoStep","122","320156","0.0-122.0"
"[0,1]","[3,2]","[2,3]","[false,false,true,true]","0","3","true","[0.509195022321655,0.4414715077613269,0.6660528921265523,0.5870952226531163]","false","true","dawsTwoStep","123","322612","0.0-123.0"
"[1,0]","[1,0]","[1,0]","[true,false,false,false]","1","0","true","[0.4710616866937811,0.44139265454019605,0.6222882776819717,0.6055026476346933]","true","false","dawsTwoStep","124","325013","0.0-124.0"
"[1,0]","[2,3]","[0,1]","[false,false,true,false]","0","2","true","[0.4695026721556985,0.4288636403945697,0.6255363202615019,0.5806171713812392]","false","false","dawsTwoStep","125","327342","0.0-125.0"
"[0,1]","[1,0]","[0,1]","[false,true,true,false]","1","1","true","[0.4600749326620603,0.4701981554396109,0.615774595229792,0.5756243862270662]","true","false","dawsTwoStep","126","329674","0.0-126.0"
"[1,0]","[0,1]","[0,1]","[true,false,true,true]","1","0","true","[0.4494529970803333,0.4319449879688146,0.5897613455344788,0.559850009410288]","true","false","dawsTwoStep","127","332127","0.0-127.0"
"[0,1]","[0,1]","[1,0]","[true,false,true,false]","0","1","false","[0.46063439663265227,0.4406135490309415,0.5405878110061454,0.538749762967259]","true","false","dawsTwoStep","128","334300","0.0-128.0"
"[0,1]","[0,1]","[1,0]","[false,true,false,true]","1","1","true","[0.4709507234032303,0.4370240798611987,0.5486862161606743,0.5004689817222733]","true","false","dawsTwoStep","129","336611","0.0-129.0"
"[0,1]","[3,2]","[2,3]","[false,false,false,true]","1","3","true","[0.4849464039999299,0.4432795104238513,0.5218421570845494,0.5239429289385944]","false","true","dawsTwoStep","130","338827","0.0-130.0"
"[0,1]","[1,0]","[2,3]","[true,true,true,true]","0","1","true","[0.5190346911538554,0.4588146728002243,0.516731924977938,0.5684383501365942]","true","true","dawsTwoStep","131","341222","0.0-131.0"
"[0,1]","[0,1]","[1,0]","[true,true,true,true]","0","1","true","[0.5068171765030782,0.5015043811280546,0.5120288662360738,0.5054979913943924]","true","false","dawsTwoStep","132","343535","0.0-132.0"
"[0,1]","[1,0]","[2,3]","[true,true,true,false]","1","2","true","[0.5175995468611556,0.5232956221433265,0.5306566630776743,0.5287722019704072]","true","true","dawsTwoStep","133","345909","0.0-133.0"
"[1,0]","[2,3]","[0,1]","[false,true,false,false]","0","3","false","[0.501433198559047,0.5416092833473598,0.5603865624796557,0.5553070749213905]","false","false","dawsTwoStep","134","348069","0.0-134.0"
"[0,1]","[1,0]","[2,3]","[false,false,false,true]","0","1","false","[0.5068992604825636,0.5249471283766729,0.5481199362446177,0.5507271710240382]","true","true","dawsTwoStep","135","350824","0.0-135.0"
"[0,1]","[1,0]","[3,2]","[true,true,true,true]","0","0","true","[0.48027686254851726,0.5495078542214715,0.5700881762370326,0.5684711999748435]","true","true","dawsTwoStep","136","353099","0.0-136.0"
"[0,1]","[1,0]","[3,2]","[true,false,true,false]","1","3","false","[0.4973486999746882,0.5590557961827132,0.5819498352867087,0.5813585792878202]","true","true","dawsTwoStep","137","355391","0.0-137.0"
"[1,0]","[3,2]","[3,2]","[true,true,false,false]","0","2","false","[0.5343236715299274,0.534428213757056,0.5890802349804167,0.6217176441956773]","false","true","dawsTwoStep","138","357956","0.0-138.0"
"[1,0]","[1,0]","[2,3]","[false,true,true,false]","1","2","true","[0.5457337394040918,0.5649539932320113,0.6030943501274034,0.6163787871734483]","true","true","dawsTwoStep","139","360190","0.0-139.0"
"[0,1]","[2,3]","[3,2]","[false,false,false,false]","0","3","false","[0.56991796376281,0.5678291104956797,0.5928995182341144,0.5804015433230714]","false","true","dawsTwoStep","140","362631","0.0-140.0"
"[0,1]","[1,0]","[3,2]","[true,true,true,true]","1","3","true","[0.5615747551623052,0.5920462255636622,0.5675547866674757,0.5768543216729127]","true","true","dawsTwoStep","141","365117","0.0-141.0"
"[1,0]","[3,2]","[0,1]","[false,false,true,false]","0","2","true","[0.5521549482455721,0.6102292996442307,0.585096031529574,0.5937045980165947]","false","false","dawsTwoStep","142","367527","0.0-142.0"
"[1,0]","[0,1]","[3,2]","[true,false,true,true]","1","3","true","[0.5071472888170246,0.6092821230044734,0.5861864757873972,0.6578258298453186]","true","true","dawsTwoStep","143","369914","0.0-143.0"
"[0,1]","[2,3]","[3,2]","[false,false,false,false]","0","3","false","[0.52724586033191,0.5969870471065503,0.5719639196206894,0.6512646853942405]","false","true","dawsTwoStep","144","372270","0.0-144.0"
"[1,0]","[0,1]","[3,2]","[false,true,false,true]","0","0","false","[0.5268556398662909,0.6132556163299634,0.5620688860673733,0.6734631898348505]","true","true","dawsTwoStep","145","374883","0.0-145.0"
"[0,1]","[0,1]","[2,3]","[true,false,true,true]","1","3","true","[0.5085967053162693,0.6159285641190957,0.5538615837203057,0.6580770788861361]","true","true","dawsTwoStep","146","377279","0.0-146.0"
"[1,0]","[0,1]","[3,2]","[false,true,false,true]","1","3","true","[0.4848876051123848,0.5942032461797162,0.5703008156527887,0.6331791741881806]","true","true","dawsTwoStep","147","379536","0.0-147.0"
"[0,1]","[2,3]","[0,1]","[false,true,false,true]","0","3","true","[0.5379254280372554,0.5926705532830375,0.5774580715897056,0.6183108965474965]","false","false","dawsTwoStep","148","382151","0.0-148.0"
"[0,1]","[1,0]","[2,3]","[false,false,true,false]","1","2","true","[0.5679143729579774,0.6047288276272659,0.5700238318914947,0.6006442291102488]","true","true","dawsTwoStep","149","384750","0.0-149.0"
"[1,0]","[3,2]","[0,1]","[false,false,true,false]","0","2","true","[0.6068238896128045,0.6162646714387129,0.5646514495232856,0.6082431296998715]","false","false","dawsTwoStep","150","387099","0.0-150.0"
"[1,0]","[0,1]","[1,0]","[true,false,false,true]","1","1","false","[0.6101778234340548,0.6431210166844734,0.5239419557360763,0.6068623244629526]","true","false","dawsTwoStep","151","389437","0.0-151.0"
"[1,0]","[0,1]","[3,2]","[true,false,true,false]","1","2","true","[0.5937370576171284,0.6541431805390456,0.5009576905632106,0.5753159160873911]","true","true","dawsTwoStep","152","391840","0.0-152.0"
"[0,1]","[2,3]","[2,3]","[true,true,true,true]","1","2","true","[0.57911931233514,0.6469781170092748,0.5310812153593066,0.6074239160451421]","false","true","dawsTwoStep","153","394170","0.0-153.0"
"[0,1]","[0,1]","[2,3]","[true,true,true,true]","1","3","true","[0.5494563497560488,0.6069505918113781,0.5265405736888507,0.5732366100343705]","true","true","dawsTwoStep","154","396394","0.0-154.0"
"[1,0]","[3,2]","[2,3]","[true,true,false,false]","1","2","false","[0.5319675703068495,0.6005585926589084,0.5562946658739583,0.583822646065325]","false","true","dawsTwoStep","155","398833","0.0-155.0"
"[1,0]","[1,0]","[2,3]","[true,false,true,true]","1","3","true","[0.5644539328250783,0.6100964335815086,0.587139281274031,0.5914713329656546]","true","true","dawsTwoStep","156","401334","0.0-156.0"
"[0,1]","[0,1]","[1,0]","[false,false,true,true]","1","1","false","[0.5646738700988035,0.6512981425746761,0.5910829777682176,0.5961267181161434]","true","false","dawsTwoStep","157","404023","0.0-157.0"
"[0,1]","[1,0]","[1,0]","[true,true,true,false]","1","0","true","[0.5638165033904137,0.6061251891557158,0.5613169351126798,0.5972256619953749]","true","false","dawsTwoStep","158","406011","0.0-158.0"
"[0,1]","[2,3]","[2,3]","[true,false,false,false]","0","2","false","[0.5639358237047369,0.6040147368035056,0.5556215115824218,0.5944892172533123]","false","true","dawsTwoStep","159","408180","0.0-159.0"
"[1,0]","[0,1]","[1,0]","[true,true,true,true]","1","0","true","[0.5456882602372342,0.6059272256914017,0.571535828341599,0.6214085747537921]","true","false","dawsTwoStep","160","410586","0.0-160.0"
"[1,0]","[1,0]","[0,1]","[false,true,true,true]","0","1","true","[0.5083091880979319,0.5794154678312524,0.6103282695401301,0.6108828485100082]","true","false","dawsTwoStep","161","413012","0.0-161.0"
"[1,0]","[0,1]","[1,0]","[true,true,true,true]","0","1","true","[0.512305949191704,0.5675576855369947,0.6327558928347014,0.5603469982186895]","true","false","dawsTwoStep","162","415240","0.0-162.0"
"[0,1]","[1,0]","[2,3]","[false,true,true,false]","1","2","true","[0.5003517004999899,0.5758782154824781,0.6825213033328486,0.5741865527443878]","true","true","dawsTwoStep","163","417519","0.0-163.0"
"[1,0]","[0,1]","[3,2]","[true,false,false,true]","0","1","false","[0.47256830038289266,0.5791049850972642,0.6807144844805867,0.5971282093409773]","true","true","dawsTwoStep","164","419710","0.0-164.0"
"[1,0]","[0,1]","[1,0]","[false,false,false,false]","1","0","false","[0.4936644037889717,0.4900773322782454,0.6947239311854481,0.6185414848814085]","true","false","dawsTwoStep","165","422145","0.0-165.0"
"[1,0]","[2,3]","[3,2]","[false,true,true,false]","1","3","false","[0.46697651662750156,0.44118632497137805,0.6799666846051164,0.6101177897747966]","false","true","dawsTwoStep","166","424215","0.0-166.0"
"[0,1]","[0,1]","[2,3]","[true,true,false,false]","0","1","true","[0.4550421287116068,0.4242388183244458,0.6573107593913541,0.6118739509184171]","true","true","dawsTwoStep","167","426292","0.0-167.0"
"[0,1]","[2,3]","[2,3]","[false,false,false,true]","0","2","false","[0.43154919752836923,0.47757761615181804,0.6728228419197708,0.6210925759151033]","false","true","dawsTwoStep","168","428440","0.0-168.0"
"[1,0]","[0,1]","[3,2]","[false,false,false,true]","0","0","false","[0.40890001381098473,0.4742131847182232,0.6416198452526545,0.5856563733190714]","true","true","dawsTwoStep","169","430525","0.0-169.0"
"[0,1]","[1,0]","[3,2]","[false,false,true,true]","1","2","true","[0.39040805278799423,0.41447805190567033,0.6886531091812922,0.5870000203680856]","true","true","dawsTwoStep","170","432438","0.0-170.0"
"[1,0]","[3,2]","[0,1]","[false,true,false,true]","1","0","false","[0.3997662640004588,0.38292381968470823,0.675825610148467,0.6116349441480585]","false","false","dawsTwoStep","171","434565","0.0-171.0"
"[1,0]","[3,2]","[3,2]","[true,false,false,true]","1","2","false","[0.40952087281189076,0.32492673212863526,0.7444744595331074,0.6108824636901323]","false","true","dawsTwoStep","172","437271","0.0-172.0"
"[1,0]","[1,0]","[1,0]","[true,false,true,true]","0","1","false","[0.4238851002651999,0.3039239792090894,0.7289922761042557,0.6520845559296857]","true","false","dawsTwoStep","173","439420","0.0-173.0"
"[1,0]","[1,0]","[3,2]","[true,true,true,false]","0","0","true","[0.4463182253902857,0.2916341602053201,0.7271866472504105,0.6638647020739656]","true","true","dawsTwoStep","174","441548","0.0-174.0"
"[1,0]","[0,1]","[3,2]","[false,false,false,true]","1","3","true","[0.40041611358735607,0.29546278762801703,0.7109902709897121,0.6776121856105972]","true","true","dawsTwoStep","175","444442","0.0-175.0"
"[0,1]","[3,2]","[3,2]","[false,false,true,false]","0","2","true","[0.4045950935306967,0.25,0.7170954869829976,0.6730154796530635]","false","true","dawsTwoStep","176","446577","0.0-176.0"
"[0,1]","[1,0]","[3,2]","[true,false,true,true]","0","0","true","[0.3890407694329995,0.25,0.7432214253721098,0.6623482598642739]","true","true","dawsTwoStep","177","448881","0.0-177.0"
"[1,0]","[0,1]","[0,1]","[false,false,false,true]","0","0","false","[0.3684439313976289,0.25,0.7408616990002181,0.6402949571707321]","true","false","dawsTwoStep","178","451677","0.0-178.0"
"[0,1]","[2,3]","[0,1]","[false,false,true,true]","1","1","false","[0.3375724067109944,0.25,0.75,0.6533009742878181]","false","false","dawsTwoStep","179","453760","0.0-179.0"
"[1,0]","[0,1]","[1,0]","[true,false,false,false]","1","1","false","[0.3292827801202129,0.25,0.7464777943874774,0.6586041218354395]","true","false","dawsTwoStep","180","455895","0.0-180.0"
"[1,0]","[3,2]","[2,3]","[false,false,true,true]","1","3","true","[0.3177829907598844,0.25,0.75,0.6950194154765612]","false","true","dawsTwoStep","181","457963","0.0-181.0"
"[1,0]","[3,2]","[0,1]","[true,false,false,true]","0","3","true","[0.34585671246037025,0.2645359356531519,0.75,0.698577311696309]","false","false","dawsTwoStep","182","460177","0.0-182.0"
"[0,1]","[0,1]","[2,3]","[false,false,true,false]","1","3","false","[0.3773057104374202,0.25,0.75,0.6960912719132234]","true","true","dawsTwoStep","183","462181","0.0-183.0"
"[0,1]","[1,0]","[2,3]","[true,false,false,true]","0","1","false","[0.3878197080175909,0.2650729933004601,0.75,0.6867051500410664]","true","true","dawsTwoStep","184","464481","0.0-184.0"
"[1,0]","[0,1]","[3,2]","[false,false,true,true]","1","2","true","[0.3955249264002178,0.29477793557104104,0.75,0.6659972202081972]","true","true","dawsTwoStep","185","466587","0.0-185.0"
"[0,1]","[1,0]","[3,2]","[false,false,true,true]","1","3","true","[0.4253231099322879,0.28378098403964774,0.7269495721997744,0.6742593915886652]","true","true","dawsTwoStep","186","469322","0.0-186.0"
"[0,1]","[0,1]","[2,3]","[false,true,true,true]","1","3","true","[0.42990209960767106,0.30321411072291976,0.75,0.6875446209711911]","true","true","dawsTwoStep","187","471424","0.0-187.0"
"[0,1]","[1,0]","[0,1]","[false,false,true,false]","0","1","false","[0.3847634266990958,0.27640247942264334,0.7359017517015769,0.6222580450557929]","true","false","dawsTwoStep","188","473751","0.0-188.0"
"[0,1]","[3,2]","[1,0]","[true,false,false,true]","0","2","false","[0.370623698248853,0.3139714538205885,0.75,0.6018130055528195]","false","false","dawsTwoStep","189","476159","0.0-189.0"
"[0,1]","[0,1]","[3,2]","[true,false,true,true]","1","3","true","[0.41973394515846735,0.28077547774599915,0.7433687721533813,0.6104923785548177]","true","true","dawsTwoStep","190","478354","0.0-190.0"
"[0,1]","[1,0]","[2,3]","[true,true,true,true]","1","3","true","[0.42557557561422416,0.2870877218015273,0.7274338290848157,0.6208654602869226]","true","true","dawsTwoStep","191","480407","0.0-191.0"
"[0,1]","[1,0]","[2,3]","[false,false,false,false]","0","1","false","[0.39096515531545145,0.2925537785068001,0.7052327944076643,0.615904221055294]","true","true","dawsTwoStep","192","482486","0.0-192.0"
"[1,0]","[3,2]","[3,2]","[false,false,true,true]","1","2","true","[0.3792580563745916,0.2799703971664827,0.7009421164813693,0.6364822285673448]","false","true","dawsTwoStep","193","484732","0.0-193.0"
"[0,1]","[0,1]","[3,2]","[false,false,false,true]","1","3","true","[0.31974424618044606,0.26828879607560097,0.6612750465796681,0.6275357731810377]","true","true","dawsTwoStep","194","488954","0.0-194.0"
"[1,0]","[1,0]","[3,2]","[false,false,true,true]","0","0","false","[0.34291861199566054,0.2692284704701239,0.659968790157083,0.6004461953707723]","true","true","dawsTwoStep","195","491407","0.0-195.0"
"[0,1]","[1,0]","[3,2]","[false,false,true,false]","0","1","false","[0.34801521648350736,0.2782730058654065,0.7102461872302543,0.5783699450470634]","true","true","dawsTwoStep","196","495706","0.0-196.0"
"[1,0]","[1,0]","[2,3]","[false,false,true,false]","1","3","false","[0.34235368540364997,0.3163753115592395,0.6985045736827291,0.5655473347332002]","true","true","dawsTwoStep","197","497873","0.0-197.0"
"[0,1]","[3,2]","[2,3]","[false,false,false,true]","1","2","false","[0.3685737368778502,0.3614398949556574,0.7242835174989983,0.5763655786528036]","false","true","dawsTwoStep","198","500220","0.0-198.0"
"[0,1]","[2,3]","[2,3]","[true,false,false,false]","1","3","false","[0.33661077338488193,0.34005753022439744,0.6883138533528118,0.5651790694940868]","false","true","dawsTwoStep","199","502402","0.0-199.0"
