"stepOne_Param","stepOneTwo_Param","stepTwoTwo_Param","rewards_Param","stepOneChoice","stepTwoChoice","reward","rewardProbabilities","isHighProbOne","isHighProbTwo","trial_type","trial_index","time_elapsed","internal_node_id"
"[1,0]","[1,0]","[3,2]","[true,false,true,true]","1","3","true","[0.4227041710884027,0.29798973797405487,0.7166827258396652,0.7111142011171665]","true","true","dawsTwoStep","0","9577","0.0-0.0"
"[1,0]","[0,1]","[1,0]","[false,false,true,true]","1","1","false","[0.40942054332893274,0.3188505945160942,0.75,0.6872194700211521]","true","false","dawsTwoStep","1","13444","0.0-1.0"
"[1,0]","[1,0]","[0,1]","[true,false,false,false]","1","1","false","[0.41553987289573163,0.3031857679493133,0.7299874606993478,0.7046086278642718]","true","false","dawsTwoStep","2","16872","0.0-2.0"
"[1,0]","[2,3]","[3,2]","[true,false,true,true]","1","3","true","[0.39769005231754334,0.29857209274021324,0.725366399950786,0.6911332677868557]","false","true","dawsTwoStep","3","19459","0.0-3.0"
"[0,1]","[0,1]","[2,3]","[true,true,true,false]","0","0","true","[0.4127008282233539,0.36568915324368173,0.7140133560542613,0.7100260798299365]","true","true","dawsTwoStep","4","23783","0.0-4.0"
"[1,0]","[1,0]","[1,0]","[true,false,true,true]","1","0","true","[0.4274743630521557,0.3877949249922287,0.6902531415219796,0.7083088074610197]","true","false","dawsTwoStep","5","27941","0.0-5.0"
"[0,1]","[1,0]","[1,0]","[true,false,true,false]","1","0","true","[0.42248108138482077,0.3591175281811516,0.7023239541369499,0.7020114685565727]","true","false","dawsTwoStep","6","31527","0.0-6.0"
"[0,1]","[1,0]","[3,2]","[false,true,true,true]","1","3","true","[0.3938779416702532,0.3293862161106413,0.7225817729065368,0.71259405142075]","true","true","dawsTwoStep","7","34696","0.0-7.0"
"[0,1]","[0,1]","[3,2]","[true,false,true,true]","1","3","true","[0.38372245221743745,0.34835481271724633,0.7406118121681537,0.6976027036856172]","true","true","dawsTwoStep","8","37546","0.0-8.0"
"[0,1]","[0,1]","[0,1]","[true,false,true,true]","1","0","true","[0.4410728779716126,0.32765892118243944,0.718440011594149,0.7036940221027257]","true","false","dawsTwoStep","9","42174","0.0-9.0"
"[1,0]","[0,1]","[3,2]","[true,false,true,true]","1","3","true","[0.4190899658376293,0.3380818311318743,0.7217969201678774,0.662876510006682]","true","true","dawsTwoStep","10","45592","0.0-10.0"
"[0,1]","[1,0]","[1,0]","[false,true,true,true]","1","1","true","[0.3906980104114816,0.37012890636259627,0.7326802358778266,0.6591619991362574]","true","false","dawsTwoStep","11","50794","0.0-11.0"
"[1,0]","[0,1]","[3,2]","[false,false,true,true]","0","1","false","[0.4030347723898252,0.333190935643541,0.6943195003322656,0.645621497832259]","true","true","dawsTwoStep","12","54112","0.0-12.0"
"[1,0]","[0,1]","[2,3]","[true,true,true,true]","1","3","true","[0.3901846453643516,0.30748216502550685,0.6795093661182393,0.6097112609966172]","true","true","dawsTwoStep","13","57527","0.0-13.0"
"[0,1]","[2,3]","[3,2]","[false,true,true,true]","1","3","true","[0.3852241549287293,0.30163422190314076,0.6711465179241884,0.613509730394295]","false","true","dawsTwoStep","14","60419","0.0-14.0"
"[0,1]","[1,0]","[3,2]","[false,false,false,true]","1","3","true","[0.3797697404663788,0.32950338275464824,0.6752759265138193,0.6250049703884226]","true","true","dawsTwoStep","15","63043","0.0-15.0"
"[1,0]","[0,1]","[2,3]","[true,true,true,false]","1","3","false","[0.41613968703884857,0.3183935262114267,0.7243981412175571,0.5977676875082949]","true","true","dawsTwoStep","16","66395","0.0-16.0"
"[1,0]","[1,0]","[1,0]","[true,false,true,true]","1","1","false","[0.3773627820585286,0.31681258953322117,0.7223034517646064,0.6076536522587059]","true","false","dawsTwoStep","17","69290","0.0-17.0"
"[1,0]","[1,0]","[2,3]","[true,false,true,false]","1","3","false","[0.3590549120133456,0.35007032743735833,0.7218202477294144,0.5661495389418632]","true","true","dawsTwoStep","18","71904","0.0-18.0"
"[0,1]","[0,1]","[2,3]","[false,false,true,false]","1","3","false","[0.4016160769591387,0.40403773184245223,0.75,0.5784531266562731]","true","true","dawsTwoStep","19","74959","0.0-19.0"
"[0,1]","[1,0]","[2,3]","[false,true,true,true]","1","2","true","[0.43215777751769263,0.3955579446164794,0.75,0.5389438846985269]","true","true","dawsTwoStep","20","77487","0.0-20.0"
"[0,1]","[0,1]","[1,0]","[false,false,true,true]","1","0","false","[0.419927526747889,0.39165663652801613,0.75,0.5193303479183965]","true","false","dawsTwoStep","21","80963","0.0-21.0"
"[1,0]","[1,0]","[2,3]","[false,true,true,true]","0","0","false","[0.413677258749582,0.4117361056505785,0.7237556182481656,0.5332566999724084]","true","true","dawsTwoStep","22","84007","0.0-22.0"
"[1,0]","[0,1]","[1,0]","[true,false,true,false]","0","0","true","[0.3908238478441946,0.37920045103043915,0.7049848550700546,0.5752067074780622]","true","false","dawsTwoStep","23","86660","0.0-23.0"
"[0,1]","[0,1]","[1,0]","[false,false,false,false]","0","0","false","[0.38763944600600153,0.3651765570588019,0.7013103617838921,0.629655141658489]","true","false","dawsTwoStep","24","90176","0.0-24.0"
"[1,0]","[3,2]","[2,3]","[true,false,false,false]","1","2","false","[0.4256297448920632,0.3659294554045973,0.6858658061751427,0.6347942505524031]","false","true","dawsTwoStep","25","93407","0.0-25.0"
"[1,0]","[1,0]","[2,3]","[true,false,false,true]","1","3","true","[0.42712352823087374,0.3731445638661788,0.6837998819037684,0.6174371394705204]","true","true","dawsTwoStep","26","95892","0.0-26.0"
"[1,0]","[3,2]","[3,2]","[true,true,false,false]","1","3","false","[0.46544133465778426,0.35552610782734917,0.6873944716337351,0.5928992859941504]","false","true","dawsTwoStep","27","99023","0.0-27.0"
"[0,1]","[1,0]","[0,1]","[false,true,true,false]","1","0","false","[0.47794324164803925,0.3675065821399534,0.6760399346915158,0.5577389101964486]","true","false","dawsTwoStep","28","101985","0.0-28.0"
"[1,0]","[1,0]","[0,1]","[true,false,true,true]","0","1","false","[0.47783377048628345,0.36241749163843834,0.6879925447893479,0.5063748531851651]","true","false","dawsTwoStep","29","105410","0.0-29.0"
"[0,1]","[1,0]","[3,2]","[true,false,true,false]","1","3","false","[0.463493782134978,0.3289333000778166,0.6828187280816956,0.4842711204784922]","true","true","dawsTwoStep","30","108258","0.0-30.0"
"[0,1]","[0,1]","[2,3]","[true,false,false,false]","1","3","false","[0.44036416331684325,0.35714241208764147,0.7172665950427428,0.500285930137736]","true","true","dawsTwoStep","31","110440","0.0-31.0"
"[1,0]","[3,2]","[2,3]","[false,true,true,true]","0","2","true","[0.43865116198298804,0.33039561838429776,0.708298069324714,0.5038650802283777]","false","true","dawsTwoStep","32","113088","0.0-32.0"
"[0,1]","[3,2]","[2,3]","[false,false,true,false]","1","2","true","[0.41158194455380576,0.33984847739571206,0.7011124101533989,0.4604518308900893]","false","true","dawsTwoStep","33","115511","0.0-33.0"
"[0,1]","[1,0]","[3,2]","[true,false,true,false]","1","3","false","[0.46036620209602647,0.35278073730854226,0.6915087594598082,0.4765295312944701]","true","true","dawsTwoStep","34","118258","0.0-34.0"
"[1,0]","[2,3]","[3,2]","[true,true,true,true]","0","2","true","[0.4802833992267066,0.3850264761404847,0.7389892067293266,0.49041507639828685]","false","true","dawsTwoStep","35","120924","0.0-35.0"
"[0,1]","[0,1]","[1,0]","[true,false,true,true]","1","0","true","[0.5028177131071746,0.4190334002775934,0.7274775098942502,0.49053605052911425]","true","false","dawsTwoStep","36","123375","0.0-36.0"
"[0,1]","[0,1]","[2,3]","[false,true,true,true]","1","2","true","[0.4818524028623968,0.4294226495638173,0.7275868581026194,0.4620109698040462]","true","true","dawsTwoStep","37","125990","0.0-37.0"
"[0,1]","[0,1]","[1,0]","[true,false,false,true]","1","0","true","[0.47194311773983305,0.4357455885344361,0.7305973047878431,0.45825374291111215]","true","false","dawsTwoStep","38","128825","0.0-38.0"
"[0,1]","[1,0]","[0,1]","[false,true,false,false]","1","0","false","[0.49890937397488966,0.4316797348775703,0.7262373198682468,0.38908583919441525]","true","false","dawsTwoStep","39","131475","0.0-39.0"
"[0,1]","[2,3]","[0,1]","[false,false,true,true]","1","1","false","[0.54933395629405,0.4592587754348652,0.7286862717236947,0.34338160230528747]","false","false","dawsTwoStep","40","134169","0.0-40.0"
"[0,1]","[3,2]","[1,0]","[false,true,true,false]","1","0","false","[0.5428811762120395,0.47795735695023694,0.7470080289566375,0.36406187678955754]","false","false","dawsTwoStep","41","136773","0.0-41.0"
"[1,0]","[3,2]","[2,3]","[true,true,true,true]","0","3","true","[0.5405041115284254,0.49500632985148246,0.75,0.3597815807174418]","false","true","dawsTwoStep","42","139076","0.0-42.0"
"[1,0]","[2,3]","[2,3]","[false,true,true,false]","0","3","false","[0.5608459944444919,0.5029578728284688,0.7428633528836659,0.3725276997968851]","false","true","dawsTwoStep","43","141893","0.0-43.0"
"[1,0]","[0,1]","[0,1]","[false,true,true,true]","0","0","false","[0.5561847050923944,0.46441634077913546,0.6825782190548441,0.3370097880042049]","true","false","dawsTwoStep","44","144507","0.0-44.0"
"[0,1]","[3,2]","[0,1]","[false,true,false,false]","1","0","false","[0.5492112922304025,0.45574937808086263,0.6538395916519099,0.33891642210248113]","false","false","dawsTwoStep","45","147727","0.0-45.0"
"[0,1]","[1,0]","[0,1]","[true,false,true,false]","1","0","true","[0.5878885703857448,0.45397914824449753,0.6782281018404732,0.3459618615712279]","true","false","dawsTwoStep","46","150840","0.0-46.0"
"[1,0]","[3,2]","[3,2]","[false,false,false,true]","0","3","true","[0.6028675726510093,0.46017581398879565,0.6453347527784359,0.29026917552705483]","false","true","dawsTwoStep","47","153528","0.0-47.0"
"[0,1]","[1,0]","[3,2]","[true,false,true,false]","1","3","false","[0.5662089314461108,0.49025438947586564,0.6684235821650392,0.26468178612130566]","true","true","dawsTwoStep","48","156309","0.0-48.0"
"[1,0]","[1,0]","[2,3]","[true,true,false,false]","0","0","true","[0.6181381476446791,0.5132755639981305,0.6540143568039727,0.2969860496081528]","true","true","dawsTwoStep","49","158876","0.0-49.0"
"[1,0]","[1,0]","[3,2]","[true,true,true,false]","0","0","true","[0.5998969347044031,0.5071924786423311,0.6478118909979814,0.30044972115542184]","true","true","dawsTwoStep","50","161573","0.0-50.0"
"[1,0]","[1,0]","[0,1]","[true,false,false,false]","0","0","true","[0.5506569400987809,0.4854808114689608,0.6366731655558171,0.31754592158198985]","true","false","dawsTwoStep","51","163975","0.0-51.0"
"[1,0]","[1,0]","[3,2]","[false,false,false,false]","0","0","false","[0.529690423422886,0.5043549184660803,0.6547063348675991,0.31959088975180155]","true","true","dawsTwoStep","52","166508","0.0-52.0"
"[0,1]","[0,1]","[1,0]","[false,false,true,true]","1","0","false","[0.5020066304603743,0.4794081302057371,0.6555614640359397,0.2524644017100069]","true","false","dawsTwoStep","53","169357","0.0-53.0"
"[0,1]","[0,1]","[2,3]","[true,true,true,true]","1","3","true","[0.4202655248830478,0.46820416410063215,0.660615804341943,0.25]","true","true","dawsTwoStep","54","172056","0.0-54.0"
"[0,1]","[1,0]","[2,3]","[true,false,false,true]","1","3","true","[0.4452360278885465,0.47996810010877244,0.689717911505454,0.25]","true","true","dawsTwoStep","55","174391","0.0-55.0"
"[1,0]","[0,1]","[1,0]","[false,false,false,true]","0","0","false","[0.46174867909577944,0.48608577141286397,0.7043569340312267,0.25]","true","false","dawsTwoStep","56","176892","0.0-56.0"
"[0,1]","[1,0]","[3,2]","[false,true,true,true]","1","2","true","[0.4702498411877285,0.4902395664599631,0.690325842679117,0.25409848349839437]","true","true","dawsTwoStep","57","179291","0.0-57.0"
"[0,1]","[0,1]","[3,2]","[true,true,true,false]","1","2","true","[0.5095783458407988,0.4983845806444734,0.697095387243744,0.2709807299400874]","true","true","dawsTwoStep","58","181673","0.0-58.0"
"[1,0]","[0,1]","[2,3]","[true,false,false,false]","0","0","true","[0.4873223910558613,0.4877902561176287,0.6906671652603651,0.2766997367070808]","true","true","dawsTwoStep","59","184037","0.0-59.0"
"[0,1]","[2,3]","[1,0]","[false,false,true,false]","1","0","false","[0.49404973749023684,0.4811633993898486,0.7229209267233341,0.25]","false","false","dawsTwoStep","60","186638","0.0-60.0"
"[1,0]","[0,1]","[3,2]","[true,true,true,false]","0","0","true","[0.526988889768804,0.49233112036153703,0.6688445826662132,0.25292169625212774]","true","true","dawsTwoStep","61","189057","0.0-61.0"
"[0,1]","[0,1]","[3,2]","[false,false,true,false]","1","2","true","[0.5460799672788617,0.44663193102885446,0.7017110995274887,0.25]","true","true","dawsTwoStep","62","191643","0.0-62.0"
"[1,0]","[1,0]","[3,2]","[true,true,true,false]","0","1","true","[0.5913371634178212,0.47764972734135336,0.7308535294922688,0.2629595270907016]","true","true","dawsTwoStep","63","194021","0.0-63.0"
"[1,0]","[0,1]","[3,2]","[false,true,true,false]","0","1","true","[0.547849213532659,0.5100001703180695,0.7293127782385339,0.30606106791222326]","true","true","dawsTwoStep","64","196540","0.0-64.0"
"[0,1]","[3,2]","[3,2]","[true,true,true,false]","1","3","false","[0.5305120842022725,0.5170578317255184,0.7404368419955558,0.32041453578768314]","false","true","dawsTwoStep","65","199240","0.0-65.0"
"[1,0]","[0,1]","[3,2]","[true,false,true,false]","0","0","true","[0.5517755159720863,0.48083081264118765,0.7433284041402088,0.32149900351115807]","true","true","dawsTwoStep","66","201955","0.0-66.0"
"[0,1]","[1,0]","[2,3]","[false,false,true,false]","1","3","false","[0.6209386408359243,0.47857369102826536,0.75,0.33659196417463605]","true","true","dawsTwoStep","67","204526","0.0-67.0"
"[1,0]","[3,2]","[2,3]","[true,true,true,false]","0","3","false","[0.6204762138979439,0.4591065759459229,0.75,0.2709178493968308]","false","true","dawsTwoStep","68","206825","0.0-68.0"
"[0,1]","[0,1]","[2,3]","[false,false,false,true]","1","3","true","[0.6015066593674114,0.4449477588841915,0.7481995004087639,0.25]","true","true","dawsTwoStep","69","209057","0.0-69.0"
"[0,1]","[0,1]","[3,2]","[false,true,true,false]","1","3","false","[0.6127753932526783,0.49334340558839457,0.75,0.25]","true","true","dawsTwoStep","70","211773","0.0-70.0"
"[0,1]","[1,0]","[3,2]","[false,false,true,false]","1","2","true","[0.5856673664333198,0.47235332122554674,0.75,0.25]","true","true","dawsTwoStep","71","213987","0.0-71.0"
"[0,1]","[1,0]","[3,2]","[false,false,true,true]","1","2","true","[0.6528500388887992,0.48351996347348297,0.75,0.28710246818795954]","true","true","dawsTwoStep","72","216589","0.0-72.0"
"[0,1]","[1,0]","[3,2]","[false,false,true,false]","1","2","true","[0.6780098762308174,0.47568271453886124,0.75,0.30801623974167525]","true","true","dawsTwoStep","73","219275","0.0-73.0"
"[1,0]","[1,0]","[2,3]","[true,false,true,true]","0","1","false","[0.6527805522038658,0.47265000936458973,0.75,0.29045389939941657]","true","true","dawsTwoStep","74","221771","0.0-74.0"
"[0,1]","[1,0]","[1,0]","[true,false,true,false]","1","0","true","[0.6139328599029106,0.46433148752857234,0.75,0.3073693918857549]","true","false","dawsTwoStep","75","224089","0.0-75.0"
"[0,1]","[0,1]","[0,1]","[true,false,true,false]","1","0","true","[0.6031931485497768,0.46695774732992423,0.75,0.27992169889226226]","true","false","dawsTwoStep","76","226856","0.0-76.0"
"[0,1]","[3,2]","[3,2]","[false,true,true,false]","1","2","true","[0.6207812950916367,0.4605042375718065,0.7468433154254023,0.2723333082503015]","false","true","dawsTwoStep","77","229719","0.0-77.0"
"[1,0]","[3,2]","[0,1]","[false,false,true,false]","0","3","false","[0.6020526219248873,0.4364011155316494,0.7015178053395341,0.25]","false","false","dawsTwoStep","78","232703","0.0-78.0"
"[1,0]","[0,1]","[3,2]","[true,false,true,false]","0","1","false","[0.5701941196567497,0.4095429163383358,0.6798656830528017,0.25972713526546687]","true","true","dawsTwoStep","79","235206","0.0-79.0"
"[0,1]","[3,2]","[3,2]","[true,true,true,false]","1","3","false","[0.5658080207609606,0.43975715473426963,0.671004512887596,0.25256630371753597]","false","true","dawsTwoStep","80","238922","0.0-80.0"
"[0,1]","[0,1]","[1,0]","[false,true,false,false]","1","0","false","[0.5771527632310314,0.4229961596231595,0.6857958714294333,0.2676675937835252]","true","false","dawsTwoStep","81","241340","0.0-81.0"
"[0,1]","[0,1]","[2,3]","[true,true,true,false]","1","2","true","[0.5938652756519424,0.3994289987399411,0.6983573969972142,0.29830286670699757]","true","true","dawsTwoStep","82","243873","0.0-82.0"
"[0,1]","[0,1]","[3,2]","[false,false,true,false]","1","2","true","[0.5905177702894489,0.4316615797716709,0.7208182995074885,0.2966005236816777]","true","true","dawsTwoStep","83","246457","0.0-83.0"
"[0,1]","[0,1]","[2,3]","[false,true,false,true]","1","2","false","[0.6125953653563565,0.4339957145936508,0.7370701376623109,0.27970067366662454]","true","true","dawsTwoStep","84","249037","0.0-84.0"
"[0,1]","[0,1]","[3,2]","[false,true,true,false]","1","2","true","[0.6095005517400979,0.413354635360833,0.7396581867713687,0.27777159597235324]","true","true","dawsTwoStep","85","251287","0.0-85.0"
"[0,1]","[1,0]","[0,1]","[true,false,true,false]","1","0","true","[0.6265528626469418,0.4378633177067155,0.7313138235337923,0.2922710762096799]","true","false","dawsTwoStep","86","253872","0.0-86.0"
"[1,0]","[1,0]","[3,2]","[false,true,true,false]","0","0","false","[0.6431625596545626,0.43074452306267386,0.7118946336864344,0.3189712177542531]","true","true","dawsTwoStep","87","256588","0.0-87.0"
"[0,1]","[0,1]","[2,3]","[true,false,false,false]","1","2","false","[0.639119642352439,0.4755092931339347,0.748602854248759,0.2827826799584191]","true","true","dawsTwoStep","88","258835","0.0-88.0"
"[1,0]","[0,1]","[2,3]","[true,false,true,false]","0","0","true","[0.6357768333654107,0.4896203465665872,0.7411218832698908,0.3159272666190105]","true","true","dawsTwoStep","89","261320","0.0-89.0"
"[0,1]","[2,3]","[0,1]","[true,true,true,false]","1","0","true","[0.6233935466728058,0.4952103065060089,0.7336469909168134,0.33084346771979173]","false","false","dawsTwoStep","90","263937","0.0-90.0"
"[1,0]","[1,0]","[2,3]","[true,false,false,false]","0","0","true","[0.6547645103363767,0.49021101933670336,0.7404038308608193,0.3064761746064823]","true","true","dawsTwoStep","91","266532","0.0-91.0"
"[1,0]","[3,2]","[2,3]","[true,true,true,false]","0","3","false","[0.6158411698141314,0.5035018431935223,0.7089396073805669,0.3127660270664769]","false","true","dawsTwoStep","92","269634","0.0-92.0"
"[0,1]","[0,1]","[3,2]","[true,true,true,true]","1","2","true","[0.5969275074288589,0.45716972013712315,0.7059072111037114,0.3173999887425859]","true","true","dawsTwoStep","93","272073","0.0-93.0"
"[1,0]","[3,2]","[2,3]","[false,true,true,true]","0","2","true","[0.597633400898901,0.48097442803600615,0.717031999183464,0.3444053913029647]","false","true","dawsTwoStep","94","275515","0.0-94.0"
"[0,1]","[2,3]","[0,1]","[true,true,true,false]","1","0","true","[0.6142705804532463,0.4483877717544026,0.7122007928973998,0.3097986993782476]","false","false","dawsTwoStep","95","277838","0.0-95.0"
"[0,1]","[1,0]","[2,3]","[true,true,false,true]","1","2","false","[0.6176310577296575,0.4737305109823297,0.681759748528164,0.3452332705148232]","true","true","dawsTwoStep","96","280372","0.0-96.0"
"[0,1]","[1,0]","[3,2]","[false,true,true,false]","1","2","true","[0.6509313132560155,0.5087935515404858,0.6778881887695711,0.35639783593128554]","true","true","dawsTwoStep","97","282664","0.0-97.0"
"[1,0]","[0,1]","[3,2]","[true,false,false,false]","0","0","true","[0.6216458286016787,0.5263762518257765,0.6369400082471653,0.3636714520970622]","true","true","dawsTwoStep","98","285321","0.0-98.0"
"[1,0]","[1,0]","[3,2]","[true,false,true,true]","0","1","false","[0.6340778848929965,0.47529360732581094,0.6611551114732048,0.3465354222899305]","true","true","dawsTwoStep","99","288183","0.0-99.0"
"[1,0]","[0,1]","[2,3]","[true,true,false,true]","0","0","true","[0.6176749371684858,0.4443557240838576,0.6505842745342282,0.3357142025373843]","true","true","dawsTwoStep","100","290705","0.0-100.0"
"[0,1]","[0,1]","[3,2]","[false,true,false,false]","1","2","false","[0.6468458544302546,0.4125682908209644,0.6174589422417627,0.38266046463034614]","true","true","dawsTwoStep","101","293121","0.0-101.0"
"[1,0]","[0,1]","[2,3]","[true,false,false,false]","0","0","true","[0.67117967042721,0.3988762910187342,0.6437922036599769,0.30108619131750447]","true","true","dawsTwoStep","102","295720","0.0-102.0"
"[0,1]","[0,1]","[1,0]","[true,false,false,true]","1","1","false","[0.65175369946341,0.37181945627756413,0.6840718545420861,0.27017393798262246]","true","false","dawsTwoStep","103","298550","0.0-103.0"
"[1,0]","[3,2]","[2,3]","[false,true,true,false]","0","2","true","[0.6616260094560021,0.350266432489582,0.7099356022819527,0.25]","false","true","dawsTwoStep","104","301384","0.0-104.0"
"[1,0]","[0,1]","[1,0]","[true,false,true,false]","0","0","true","[0.7319303236475966,0.3247151878124003,0.6938530686689515,0.25]","true","false","dawsTwoStep","105","304015","0.0-105.0"
"[0,1]","[2,3]","[0,1]","[false,false,false,true]","0","3","true","[0.6796127995358056,0.3525003145655976,0.6280119330380216,0.2747586109870149]","false","false","dawsTwoStep","106","310354","0.0-106.0"
"[0,1]","[1,0]","[1,0]","[true,false,true,false]","0","1","false","[0.7050467659730276,0.32726032994821047,0.6560065239454391,0.2668645692763961]","true","false","dawsTwoStep","107","312871","0.0-107.0"
"[1,0]","[3,2]","[2,3]","[true,false,true,false]","1","2","true","[0.6722053361718173,0.3169450860975537,0.6787653328641515,0.3105713489699439]","false","true","dawsTwoStep","108","315384","0.0-108.0"
"[0,1]","[0,1]","[1,0]","[true,false,true,false]","0","1","false","[0.6783053603195707,0.33030036081039527,0.6875330533076527,0.301805359448706]","true","false","dawsTwoStep","109","320138","0.0-109.0"
"[0,1]","[2,3]","[3,2]","[false,true,true,false]","0","2","true","[0.6516343209876176,0.355383393517255,0.6777150156458659,0.29677172418274367]","false","true","dawsTwoStep","110","322771","0.0-110.0"
"[1,0]","[2,3]","[3,2]","[true,false,true,true]","1","3","true","[0.6908793679846112,0.38168162714173354,0.6850416812222784,0.2971328482244126]","false","true","dawsTwoStep","111","325372","0.0-111.0"
"[1,0]","[2,3]","[2,3]","[true,false,true,false]","0","2","true","[0.6831824167060518,0.37803777522607346,0.6893733681944607,0.309928063966161]","false","true","dawsTwoStep","112","328216","0.0-112.0"
"[1,0]","[1,0]","[2,3]","[false,false,true,false]","0","0","false","[0.6060706794084232,0.38262446136708994,0.7163199051526045,0.3348750384155871]","true","true","dawsTwoStep","113","330988","0.0-113.0"
"[1,0]","[1,0]","[2,3]","[false,false,true,false]","0","1","false","[0.609705335819938,0.37048106904725947,0.7263697347608412,0.35364952624951534]","true","true","dawsTwoStep","114","333369","0.0-114.0"
"[0,1]","[2,3]","[3,2]","[true,false,true,false]","1","2","true","[0.6205468196155463,0.3737456506075004,0.7431768944169425,0.36302073344580754]","false","true","dawsTwoStep","115","336084","0.0-115.0"
"[0,1]","[0,1]","[3,2]","[false,true,true,false]","1","2","true","[0.6013738320089969,0.41628311007020014,0.6982528749896613,0.3484457520071193]","true","true","dawsTwoStep","116","339014","0.0-116.0"
"[0,1]","[3,2]","[2,3]","[false,true,true,false]","1","2","true","[0.6222867613585532,0.4478975023738033,0.71013871899776,0.3486456429241709]","false","true","dawsTwoStep","117","341568","0.0-117.0"
"[1,0]","[1,0]","[2,3]","[false,true,true,false]","0","0","false","[0.622479234528521,0.4196552033032378,0.6933471410920303,0.3216512540306678]","true","true","dawsTwoStep","118","345371","0.0-118.0"
"[0,1]","[0,1]","[2,3]","[true,false,true,false]","0","1","false","[0.5812720737698666,0.4238532776651191,0.6545310002965986,0.2765159569497054]","true","true","dawsTwoStep","119","348902","0.0-119.0"
"[0,1]","[3,2]","[2,3]","[true,false,false,true]","1","2","false","[0.5771281227325762,0.41151565195517537,0.6091963817187882,0.2588097543870182]","false","true","dawsTwoStep","120","351884","0.0-120.0"
"[1,0]","[2,3]","[2,3]","[true,false,true,false]","0","3","false","[0.5660533642077022,0.4179619190586649,0.591661176263403,0.25]","false","true","dawsTwoStep","121","354265","0.0-121.0"
"[0,1]","[1,0]","[0,1]","[false,false,false,false]","1","0","false","[0.60186712529689,0.43431469272781,0.578040097684639,0.25531233414902355]","true","false","dawsTwoStep","122","356949","0.0-122.0"
"[1,0]","[0,1]","[0,1]","[false,false,false,true]","0","1","false","[0.6026752332307922,0.4437981879955601,0.5734527150154003,0.26405528905026265]","true","false","dawsTwoStep","123","360806","0.0-123.0"
"[0,1]","[1,0]","[2,3]","[true,true,true,false]","1","2","true","[0.6349096963760236,0.41529763554086346,0.6123493945090849,0.25465195159595694]","true","true","dawsTwoStep","124","363141","0.0-124.0"
"[0,1]","[0,1]","[2,3]","[true,true,true,true]","1","2","true","[0.6489345753515727,0.41678283317962966,0.5859466287944745,0.2546995434672663]","true","true","dawsTwoStep","125","365787","0.0-125.0"
"[0,1]","[1,0]","[3,2]","[true,true,false,true]","1","2","false","[0.6547242551758298,0.45733503567869993,0.5917798872822247,0.27101746878387667]","true","true","dawsTwoStep","126","368422","0.0-126.0"
"[1,0]","[1,0]","[2,3]","[true,false,false,false]","0","0","true","[0.6371372801124415,0.4497258309588634,0.5541771170361537,0.2876962171241879]","true","true","dawsTwoStep","127","371034","0.0-127.0"
"[0,1]","[2,3]","[2,3]","[true,true,true,false]","1","2","true","[0.6083984923030168,0.44538025732281017,0.5107039663036176,0.2676955609586348]","false","true","dawsTwoStep","128","373385","0.0-128.0"
"[0,1]","[1,0]","[2,3]","[true,true,true,false]","1","2","true","[0.6574887788331948,0.41086284933568074,0.5456563444514302,0.25012514807373926]","true","true","dawsTwoStep","129","376264","0.0-129.0"
"[0,1]","[0,1]","[3,2]","[true,true,true,false]","1","2","true","[0.6344247857842863,0.4036452288427121,0.5363698922967941,0.26242861949531776]","true","true","dawsTwoStep","130","378868","0.0-130.0"
"[1,0]","[1,0]","[0,1]","[false,true,false,false]","1","0","false","[0.6109059559016154,0.4346705331430205,0.5267821409797281,0.2649940360696465]","true","false","dawsTwoStep","131","382974","0.0-131.0"
"[1,0]","[0,1]","[2,3]","[true,false,true,false]","0","0","true","[0.6403554066180166,0.4460522425430851,0.5817119558576058,0.2846815417191592]","true","true","dawsTwoStep","132","386785","0.0-132.0"
"[1,0]","[0,1]","[3,2]","[false,false,true,false]","0","0","false","[0.6593117869322914,0.4661989457182126,0.6024845755394918,0.26085659656272975]","true","true","dawsTwoStep","133","389986","0.0-133.0"
"[1,0]","[3,2]","[1,0]","[true,false,false,true]","1","0","true","[0.6473923368672734,0.4749240184420551,0.6052555181399801,0.30005435543718445]","false","false","dawsTwoStep","134","393286","0.0-134.0"
"[0,1]","[2,3]","[3,2]","[false,true,false,true]","0","2","false","[0.622628315615966,0.44331348496300094,0.5880717251224971,0.3065258151068149]","false","true","dawsTwoStep","135","396750","0.0-135.0"
"[1,0]","[0,1]","[3,2]","[true,false,true,false]","1","2","true","[0.659565485432373,0.47920640936578207,0.5788813923570958,0.30927443423329776]","true","true","dawsTwoStep","136","399214","0.0-136.0"
"[1,0]","[2,3]","[1,0]","[true,true,false,false]","1","0","true","[0.6307140314972695,0.4825358112981703,0.533695731928506,0.30266122399485457]","false","false","dawsTwoStep","137","402799","0.0-137.0"
"[1,0]","[0,1]","[1,0]","[true,false,true,false]","1","0","true","[0.5966379665284851,0.4696377557537422,0.5180227969002317,0.3259484081739065]","true","false","dawsTwoStep","138","405568","0.0-138.0"
"[0,1]","[1,0]","[3,2]","[true,true,false,false]","0","0","true","[0.6062864601407915,0.47202661443446053,0.544678124270297,0.3197398403681055]","true","true","dawsTwoStep","139","409033","0.0-139.0"
"[0,1]","[0,1]","[2,3]","[true,false,true,false]","0","0","true","[0.5964290775349884,0.45887388515338734,0.5012821504050621,0.3196143550175986]","true","true","dawsTwoStep","140","412182","0.0-140.0"
"[1,0]","[2,3]","[2,3]","[true,false,true,false]","1","2","true","[0.5826553739550131,0.4184907200229391,0.5032109456664077,0.3192885802757043]","false","true","dawsTwoStep","141","415583","0.0-141.0"
"[1,0]","[0,1]","[3,2]","[true,false,true,false]","1","2","true","[0.5127461178998183,0.40383504437954104,0.5109848404426003,0.2954721168795007]","true","true","dawsTwoStep","142","420251","0.0-142.0"
"[1,0]","[1,0]","[3,2]","[false,false,true,true]","1","2","true","[0.5260092118567642,0.37769172538934753,0.5277251745241466,0.28700248700626446]","true","true","dawsTwoStep","143","423214","0.0-143.0"
"[0,1]","[3,2]","[3,2]","[true,false,false,false]","0","2","false","[0.5238280020050896,0.37449827414101167,0.5088372426392982,0.2865054094373575]","false","true","dawsTwoStep","144","427276","0.0-144.0"
"[0,1]","[1,0]","[3,2]","[false,false,true,false]","1","2","true","[0.5375602467295632,0.36463139898710406,0.48377727992597175,0.25]","true","true","dawsTwoStep","145","429903","0.0-145.0"
"[0,1]","[0,1]","[1,0]","[false,true,true,true]","1","0","false","[0.5230456119877289,0.3545913268799271,0.46941680079461395,0.28072510657905986]","true","false","dawsTwoStep","146","432773","0.0-146.0"
"[1,0]","[1,0]","[3,2]","[false,false,false,false]","0","1","false","[0.4908850385567062,0.35977448997270955,0.5171888459673815,0.29144056566725174]","true","true","dawsTwoStep","147","435168","0.0-147.0"
"[0,1]","[1,0]","[2,3]","[true,true,true,false]","1","2","true","[0.43661096346608885,0.35455198189492226,0.5013766196748154,0.3000983283826858]","true","true","dawsTwoStep","148","438236","0.0-148.0"
"[1,0]","[2,3]","[3,2]","[false,false,false,false]","1","2","false","[0.47831241830210536,0.3676205329197922,0.5222176007397554,0.28854096397555634]","false","true","dawsTwoStep","149","441400","0.0-149.0"
"[1,0]","[1,0]","[0,1]","[true,false,false,false]","1","1","false","[0.47080081482394964,0.3409071980458505,0.5382204013582835,0.3097530601622552]","true","false","dawsTwoStep","150","444765","0.0-150.0"
"[1,0]","[3,2]","[3,2]","[false,false,true,false]","1","2","true","[0.46957917451853387,0.35495865175759533,0.5261017651754811,0.3043547378454623]","false","true","dawsTwoStep","151","447915","0.0-151.0"
"[0,1]","[0,1]","[0,1]","[true,true,true,false]","1","0","true","[0.4567514200164202,0.3798823986745437,0.507996168991448,0.31537072903852786]","true","false","dawsTwoStep","152","451829","0.0-152.0"
"[1,0]","[1,0]","[2,3]","[true,true,true,false]","0","0","true","[0.41298096926615263,0.37467657624337225,0.5128924284494282,0.32091635805113905]","true","true","dawsTwoStep","153","454895","0.0-153.0"
"[0,1]","[2,3]","[2,3]","[false,true,false,true]","1","2","false","[0.4406072478113852,0.36767958638065473,0.4532887002770899,0.3050176258591418]","false","true","dawsTwoStep","154","457650","0.0-154.0"
"[0,1]","[1,0]","[2,3]","[true,false,false,false]","1","2","false","[0.4439904308447234,0.3503621218262833,0.47886549651869637,0.28353806038330426]","true","true","dawsTwoStep","155","460978","0.0-155.0"
"[1,0]","[0,1]","[0,1]","[false,true,false,true]","0","1","true","[0.45444373283721873,0.33125509554996313,0.4739754153061316,0.2720256048023228]","true","false","dawsTwoStep","156","463719","0.0-156.0"
"[0,1]","[1,0]","[3,2]","[false,false,true,false]","1","2","true","[0.4625915238712528,0.3346021963664358,0.4872264560762352,0.26042292448779475]","true","true","dawsTwoStep","157","466512","0.0-157.0"
"[0,1]","[1,0]","[2,3]","[false,false,true,false]","1","2","true","[0.46024742835867016,0.36055284040700625,0.49182980620573846,0.25]","true","true","dawsTwoStep","158","469190","0.0-158.0"
"[0,1]","[2,3]","[2,3]","[false,false,false,false]","1","2","false","[0.40814886293179586,0.42558328696365705,0.511625658171072,0.25]","false","true","dawsTwoStep","159","471778","0.0-159.0"
"[1,0]","[2,3]","[2,3]","[false,false,true,false]","0","2","true","[0.39559067655800384,0.4303848059320494,0.5422197844333068,0.2588300727825093]","false","true","dawsTwoStep","160","474294","0.0-160.0"
"[1,0]","[3,2]","[2,3]","[true,false,true,false]","0","2","true","[0.4310107338234138,0.4647505682118297,0.5436337626127102,0.25]","false","true","dawsTwoStep","161","476791","0.0-161.0"
"[0,1]","[3,2]","[0,1]","[true,false,false,false]","1","0","true","[0.48731001510012717,0.46488930867710554,0.5218640495196641,0.25]","false","false","dawsTwoStep","162","480059","0.0-162.0"
"[1,0]","[2,3]","[2,3]","[true,true,false,false]","0","2","false","[0.46901977006494533,0.4807511998355473,0.5757986714804881,0.25]","false","true","dawsTwoStep","163","482809","0.0-163.0"
"[1,0]","[2,3]","[3,2]","[true,false,false,false]","0","2","false","[0.44373225468209804,0.4887823860818941,0.580856813203637,0.2709062019543628]","false","true","dawsTwoStep","164","485911","0.0-164.0"
"[1,0]","[1,0]","[0,1]","[false,true,true,false]","1","0","false","[0.429457267838418,0.5092258265125031,0.604275896318896,0.2631881764621361]","true","false","dawsTwoStep","165","489894","0.0-165.0"
"[0,1]","[2,3]","[2,3]","[false,false,false,true]","0","2","false","[0.4136375022520115,0.5057972553536445,0.5963145609796163,0.2842089752387276]","false","true","dawsTwoStep","166","492678","0.0-166.0"
"[1,0]","[0,1]","[3,2]","[true,false,true,false]","0","1","false","[0.4020811156944517,0.5092509798391621,0.6041209594610945,0.25]","true","true","dawsTwoStep","167","495395","0.0-167.0"
"[1,0]","[0,1]","[0,1]","[true,false,false,true]","1","0","true","[0.4106010114666725,0.5019415770708957,0.6171180975379577,0.25]","true","false","dawsTwoStep","168","504444","0.0-168.0"
"[1,0]","[2,3]","[2,3]","[true,true,true,false]","1","2","true","[0.43872384603040365,0.4927719931040474,0.5677048417247549,0.2651242650468199]","false","true","dawsTwoStep","169","516791","0.0-169.0"
"[0,1]","[3,2]","[3,2]","[false,false,false,false]","0","2","false","[0.4274416789199253,0.5570225415628529,0.545138998080026,0.25]","false","true","dawsTwoStep","170","520107","0.0-170.0"
"[0,1]","[1,0]","[2,3]","[false,true,true,false]","1","2","true","[0.41011395709294685,0.5774454751160505,0.5883045388648062,0.25]","true","true","dawsTwoStep","171","523461","0.0-171.0"
"[0,1]","[1,0]","[2,3]","[false,true,false,true]","1","2","false","[0.4328393124267846,0.54315682973567,0.5652171772445327,0.2628720781461674]","true","true","dawsTwoStep","172","528660","0.0-172.0"
"[1,0]","[0,1]","[3,2]","[false,true,true,false]","1","2","true","[0.4603007400169139,0.5430928403700399,0.5455298995178868,0.2568490551139735]","true","true","dawsTwoStep","173","532491","0.0-173.0"
"[0,1]","[2,3]","[1,0]","[false,true,true,false]","1","0","false","[0.44400817462040604,0.5289378411602061,0.5468236946787502,0.27687888106612374]","false","false","dawsTwoStep","174","536492","0.0-174.0"
"[1,0]","[1,0]","[2,3]","[false,true,false,false]","0","1","true","[0.44274288080661933,0.5018214147272009,0.5428863684077159,0.3048297855423631]","true","true","dawsTwoStep","175","540243","0.0-175.0"
"[0,1]","[0,1]","[1,0]","[false,true,true,true]","1","0","false","[0.42801338616589196,0.49805615406687787,0.549391776803814,0.31052342674360545]","true","false","dawsTwoStep","176","547357","0.0-176.0"
"[1,0]","[1,0]","[3,2]","[false,false,false,false]","0","1","false","[0.4001779797705993,0.5044033449662378,0.5326820722036191,0.2822209284177972]","true","true","dawsTwoStep","177","550409","0.0-177.0"
"[1,0]","[1,0]","[3,2]","[true,false,true,true]","1","2","true","[0.3869337325221641,0.4907023998095084,0.5784456733139847,0.29159792797398304]","true","true","dawsTwoStep","178","553394","0.0-178.0"
"[0,1]","[1,0]","[3,2]","[true,true,false,false]","1","2","false","[0.37444442373601355,0.44324315083698135,0.5991373740734502,0.30202900150740714]","true","true","dawsTwoStep","179","556312","0.0-179.0"
"[1,0]","[3,2]","[0,1]","[false,false,false,false]","1","0","false","[0.36080828343370075,0.4246716214601962,0.6049458760943569,0.268537070207575]","false","false","dawsTwoStep","180","560377","0.0-180.0"
"[1,0]","[1,0]","[3,2]","[false,false,false,false]","0","0","false","[0.37455338601324123,0.43565654970313694,0.6046623959151258,0.2868396612864625]","true","true","dawsTwoStep","181","563318","0.0-181.0"
"[1,0]","[1,0]","[2,3]","[false,true,true,false]","0","1","true","[0.3491022322424286,0.4271685959394399,0.5680113332284679,0.25762778455370033]","true","true","dawsTwoStep","182","566387","0.0-182.0"
"[1,0]","[0,1]","[3,2]","[false,false,true,false]","0","1","false","[0.37773661733572084,0.4018486801025648,0.5802152864364027,0.26703184681191827]","true","true","dawsTwoStep","183","569176","0.0-183.0"
"[1,0]","[3,2]","[2,3]","[false,true,false,false]","0","3","false","[0.3626197426308271,0.38789490695248974,0.6214499209522869,0.2785943582718794]","false","true","dawsTwoStep","184","571609","0.0-184.0"
"[1,0]","[1,0]","[1,0]","[true,true,true,false]","0","0","true","[0.32891621094976753,0.4447815252910589,0.63916993539718,0.267287514184278]","true","false","dawsTwoStep","185","574841","0.0-185.0"
"[1,0]","[2,3]","[0,1]","[false,false,true,true]","0","2","true","[0.3392665650906947,0.4354440409374083,0.5823928657164107,0.29327709627365806]","false","false","dawsTwoStep","186","577640","0.0-186.0"
"[1,0]","[2,3]","[3,2]","[false,false,false,false]","0","2","false","[0.349041643061868,0.3834261023341473,0.5919207825282499,0.2548355476579339]","false","true","dawsTwoStep","187","580054","0.0-187.0"
"[0,1]","[0,1]","[0,1]","[false,false,false,true]","1","1","false","[0.35542239356214883,0.36350413436560947,0.5802927343544912,0.25]","true","false","dawsTwoStep","188","583127","0.0-188.0"
"[0,1]","[3,2]","[1,0]","[true,false,false,false]","1","0","true","[0.33309095580756276,0.38142139909990597,0.6360686446464099,0.25]","false","false","dawsTwoStep","189","585839","0.0-189.0"
"[1,0]","[1,0]","[1,0]","[false,true,true,false]","0","0","false","[0.31969277603149104,0.3586607080315989,0.6607076679534669,0.2519352263975214]","true","false","dawsTwoStep","190","588351","0.0-190.0"
"[0,1]","[0,1]","[1,0]","[true,false,true,false]","1","0","true","[0.3114792866324531,0.39336747027942226,0.6885891224536875,0.269813147741]","true","false","dawsTwoStep","191","591591","0.0-191.0"
"[1,0]","[3,2]","[0,1]","[false,false,true,false]","1","0","false","[0.32891569201536447,0.4136601585479777,0.7227233792279047,0.2919579418846399]","false","false","dawsTwoStep","192","594621","0.0-192.0"
"[1,0]","[0,1]","[0,1]","[false,false,true,false]","1","1","false","[0.31405663206062917,0.43098884242704755,0.7143252853617525,0.2643517950182371]","true","false","dawsTwoStep","193","598227","0.0-193.0"
"[1,0]","[2,3]","[3,2]","[true,true,false,false]","1","3","false","[0.30994386831852533,0.44501924005333743,0.75,0.2684118712823462]","false","true","dawsTwoStep","194","600532","0.0-194.0"
"[0,1]","[0,1]","[2,3]","[true,false,true,false]","0","0","true","[0.3009210004913123,0.4524675144435229,0.7382014906913593,0.2531657100368081]","true","true","dawsTwoStep","195","605822","0.0-195.0"
"[1,0]","[0,1]","[3,2]","[false,true,true,false]","1","2","true","[0.34082070023131383,0.481416041813656,0.745132829606086,0.25]","true","true","dawsTwoStep","196","610345","0.0-196.0"
"[1,0]","[1,0]","[3,2]","[false,true,true,false]","1","3","false","[0.3517932882828622,0.447239370520482,0.747807837005776,0.295634725452789]","true","true","dawsTwoStep","197","613260","0.0-197.0"
"[1,0]","[0,1]","[2,3]","[false,false,true,false]","1","2","true","[0.3340069705514919,0.49090235732554854,0.709855983227919,0.2764312637850366]","true","true","dawsTwoStep","198","616855","0.0-198.0"
"[0,1]","[3,2]","[2,3]","[false,true,true,false]","0","2","true","[0.3338334198538171,0.5161610720384788,0.6922226195085173,0.2767878395971543]","false","true","dawsTwoStep","199","620177","0.0-199.0"
