"stepOne_Param","stepOneTwo_Param","stepTwoTwo_Param","rewards_Param","stepOneChoice","stepTwoChoice","reward","rewardProbabilities","isHighProbOne","isHighProbTwo","trial_type","trial_index","time_elapsed","internal_node_id"
"[0,1]","[3,2]","[3,2]","[false,true,false,true]","0","2","false","[0.7240105237211883,0.75,0.4354167450755569,0.46817139944278374]","false","true","dawsTwoStep","0","12431","0.0-0.0"
"[1,0]","[0,1]","[0,1]","[true,true,true,false]","0","0","true","[0.7042684419428314,0.75,0.4277487494872227,0.4310425545053952]","true","false","dawsTwoStep","1","18798","0.0-1.0"
"[1,0]","[0,1]","[2,3]","[false,false,false,false]","0","0","false","[0.7007083252064237,0.75,0.3889287294715928,0.42240786337871755]","true","true","dawsTwoStep","2","23493","0.0-2.0"
"[1,0]","[2,3]","[3,2]","[false,true,false,true]","0","3","true","[0.7270550779127808,0.734598503288067,0.38641527609827614,0.4427862902545387]","false","true","dawsTwoStep","3","26162","0.0-3.0"
"[0,1]","[1,0]","[1,0]","[true,true,true,false]","0","0","true","[0.7438181852907386,0.713055300057692,0.3292176622124589,0.4439387109377222]","true","false","dawsTwoStep","4","30937","0.0-4.0"
"[1,0]","[0,1]","[1,0]","[true,true,false,true]","0","0","true","[0.7335211813315538,0.7350547610097133,0.3611618006803214,0.4747414733618231]","true","false","dawsTwoStep","5","34291","0.0-5.0"
"[0,1]","[3,2]","[3,2]","[false,false,true,true]","0","3","true","[0.7141025404125095,0.75,0.3727422755547992,0.4831831074521406]","false","true","dawsTwoStep","6","38855","0.0-6.0"
"[1,0]","[1,0]","[3,2]","[false,false,false,true]","0","0","false","[0.7283108062616609,0.75,0.3710505453999052,0.4721577648526841]","true","true","dawsTwoStep","7","42211","0.0-7.0"
"[1,0]","[2,3]","[2,3]","[true,true,false,false]","0","2","false","[0.6980168202758751,0.7242205416065803,0.3601252489475317,0.46284874824164135]","false","true","dawsTwoStep","8","46052","0.0-8.0"
"[0,1]","[0,1]","[2,3]","[true,true,false,true]","0","0","true","[0.7048533753325873,0.7195670602101519,0.32600167536027685,0.44786011602471015]","true","true","dawsTwoStep","9","49813","0.0-9.0"
"[0,1]","[2,3]","[0,1]","[false,false,false,false]","0","3","false","[0.6412068135294471,0.7453458513797775,0.36599257925794404,0.45462662871915216]","false","false","dawsTwoStep","10","52750","0.0-10.0"
"[0,1]","[1,0]","[2,3]","[false,true,false,false]","0","1","true","[0.6845711557669031,0.75,0.3781581381245073,0.44557783148778696]","true","true","dawsTwoStep","11","55375","0.0-11.0"
"[1,0]","[0,1]","[3,2]","[true,true,false,false]","0","0","true","[0.6973561537564692,0.75,0.3674587388706769,0.4655368891377344]","true","true","dawsTwoStep","12","58502","0.0-12.0"
"[1,0]","[1,0]","[2,3]","[true,true,true,true]","0","0","true","[0.6975808872564876,0.75,0.3333621683622632,0.43431296565468747]","true","true","dawsTwoStep","13","61466","0.0-13.0"
"[0,1]","[0,1]","[1,0]","[false,true,true,false]","0","0","false","[0.7343434618892799,0.7456080421098921,0.34342471145642556,0.43753448726147226]","true","false","dawsTwoStep","14","64896","0.0-14.0"
"[0,1]","[0,1]","[2,3]","[true,false,false,false]","0","0","true","[0.7219857217896376,0.7149697379183715,0.36661809565484493,0.4518242756583122]","true","true","dawsTwoStep","15","67182","0.0-15.0"
"[0,1]","[3,2]","[3,2]","[true,true,false,false]","0","2","false","[0.6854683944115177,0.6853305620084212,0.35325333139344767,0.43334846031783514]","false","true","dawsTwoStep","16","70733","0.0-16.0"
"[1,0]","[3,2]","[1,0]","[false,false,false,true]","0","3","true","[0.6626388885969011,0.6581526195216634,0.33513236012388953,0.4401879699482891]","false","false","dawsTwoStep","17","73524","0.0-17.0"
"[1,0]","[0,1]","[2,3]","[true,true,false,true]","0","0","true","[0.6312639422345585,0.691668154373402,0.31549430260385725,0.43808929470301844]","true","true","dawsTwoStep","18","76164","0.0-18.0"
"[0,1]","[0,1]","[2,3]","[true,true,true,false]","0","1","true","[0.6239712013705478,0.674764078326627,0.3184126965850548,0.40553551669768867]","true","true","dawsTwoStep","19","79169","0.0-19.0"
"[1,0]","[0,1]","[2,3]","[false,true,false,false]","0","0","false","[0.6185516783243348,0.6995055844577134,0.3229664584306964,0.4021816085785087]","true","true","dawsTwoStep","20","82115","0.0-20.0"
"[0,1]","[0,1]","[1,0]","[true,true,false,true]","0","0","true","[0.647190605953581,0.7236681087832887,0.36876433363820577,0.44071396911973854]","true","false","dawsTwoStep","21","85117","0.0-21.0"
"[1,0]","[0,1]","[3,2]","[true,false,false,false]","0","0","true","[0.6234941451430212,0.7157944247087706,0.3389764656941731,0.45563973255725465]","true","true","dawsTwoStep","22","88497","0.0-22.0"
"[1,0]","[2,3]","[2,3]","[true,true,false,true]","0","3","true","[0.6145317451279002,0.7259798964202474,0.32506505329502594,0.4513556707550469]","false","true","dawsTwoStep","23","91517","0.0-23.0"
"[1,0]","[2,3]","[2,3]","[true,true,false,true]","0","3","true","[0.6227294141274989,0.75,0.3430901761812162,0.4689680009467746]","false","true","dawsTwoStep","24","95613","0.0-24.0"
"[1,0]","[1,0]","[3,2]","[false,true,false,false]","0","0","false","[0.6396378039661352,0.7337625802334878,0.35028437866470163,0.4761127623338313]","true","true","dawsTwoStep","25","98455","0.0-25.0"
"[1,0]","[1,0]","[3,2]","[false,true,true,true]","0","0","false","[0.6237329529391133,0.7170719641543574,0.3462489300430098,0.4989949772149716]","true","true","dawsTwoStep","26","101373","0.0-26.0"
"[1,0]","[2,3]","[2,3]","[true,false,true,true]","0","3","true","[0.6217414532329034,0.7159296432569991,0.2983856661712301,0.4924219221579501]","false","true","dawsTwoStep","27","104624","0.0-27.0"
"[0,1]","[1,0]","[0,1]","[true,true,false,true]","0","0","true","[0.6241387305227585,0.75,0.30781543905085096,0.5458108236705355]","true","false","dawsTwoStep","28","107911","0.0-28.0"
"[0,1]","[2,3]","[3,2]","[true,true,true,false]","0","2","true","[0.596910644114481,0.7401680767214239,0.268618338152561,0.5478603167062923]","false","true","dawsTwoStep","29","110867","0.0-29.0"
"[1,0]","[2,3]","[1,0]","[true,true,false,true]","1","0","true","[0.5457750708392275,0.75,0.25739855086091423,0.5588261517842845]","false","false","dawsTwoStep","30","113897","0.0-30.0"
"[0,1]","[0,1]","[2,3]","[false,true,false,true]","0","0","false","[0.5620534260851532,0.7315789289114011,0.2845201835981363,0.564070300270974]","true","true","dawsTwoStep","31","116608","0.0-31.0"
"[1,0]","[0,1]","[2,3]","[true,true,false,true]","0","0","true","[0.6066284793678729,0.7059260561447462,0.2777734616423311,0.5615417215466825]","true","true","dawsTwoStep","32","119953","0.0-32.0"
"[0,1]","[3,2]","[3,2]","[true,false,false,false]","0","2","false","[0.6344493419396211,0.6537003656776357,0.30195388275596224,0.5244132872759225]","false","true","dawsTwoStep","33","124228","0.0-33.0"
"[1,0]","[1,0]","[3,2]","[false,true,true,false]","0","1","true","[0.6351207568461005,0.6770048050068516,0.2654967106583935,0.5413152453197064]","true","true","dawsTwoStep","34","127902","0.0-34.0"
"[0,1]","[1,0]","[3,2]","[true,false,false,true]","0","0","true","[0.6606340409823392,0.6796235350460844,0.25,0.5976400549441082]","true","true","dawsTwoStep","35","130745","0.0-35.0"
"[1,0]","[0,1]","[0,1]","[true,true,false,false]","0","0","true","[0.6443232766812172,0.7036596561528083,0.25,0.6252726322292605]","true","false","dawsTwoStep","36","133693","0.0-36.0"
"[0,1]","[0,1]","[3,2]","[true,true,false,false]","0","0","true","[0.6394067693941654,0.6934339962786694,0.3054604378049034,0.6138986065476563]","true","true","dawsTwoStep","37","136446","0.0-37.0"
"[1,0]","[3,2]","[0,1]","[false,false,false,true]","0","2","false","[0.6541088564954425,0.6985031620324357,0.291847803960952,0.6855264811438591]","false","false","dawsTwoStep","38","139373","0.0-38.0"
"[1,0]","[1,0]","[2,3]","[false,true,false,true]","0","0","false","[0.6682792667169687,0.6779011967879979,0.26624393867499013,0.6705786329740463]","true","true","dawsTwoStep","39","142225","0.0-39.0"
"[0,1]","[0,1]","[3,2]","[true,true,false,true]","0","0","true","[0.6869695290927789,0.6482202838883548,0.25,0.6760701461719293]","true","true","dawsTwoStep","40","145189","0.0-40.0"
"[0,1]","[0,1]","[0,1]","[false,true,true,true]","0","0","false","[0.6995699367794322,0.6307567043028637,0.25,0.6440367980472079]","true","false","dawsTwoStep","41","151415","0.0-41.0"
"[1,0]","[0,1]","[3,2]","[true,false,false,true]","0","0","true","[0.6893520842278997,0.6316158399165933,0.29176223400904866,0.6690522802830363]","true","true","dawsTwoStep","42","154289","0.0-42.0"
"[1,0]","[3,2]","[1,0]","[true,true,false,true]","0","2","false","[0.6970406683774876,0.5945445401473486,0.328094866628087,0.6018337200734951]","false","false","dawsTwoStep","43","157376","0.0-43.0"
"[1,0]","[2,3]","[3,2]","[false,false,false,false]","0","3","false","[0.7135762992999553,0.5779826031450714,0.325531403853526,0.6095936997476408]","false","true","dawsTwoStep","44","160508","0.0-44.0"
"[1,0]","[0,1]","[1,0]","[true,false,true,true]","0","0","true","[0.7226618388930112,0.5947881179718171,0.3308721437601698,0.6171275657986415]","true","false","dawsTwoStep","45","162982","0.0-45.0"
"[1,0]","[1,0]","[3,2]","[true,true,true,false]","0","0","true","[0.7212303610919488,0.609023082157516,0.2971253867152167,0.6203264724055741]","true","true","dawsTwoStep","46","165712","0.0-46.0"
"[0,1]","[1,0]","[0,1]","[true,false,false,false]","0","0","true","[0.7048844795259311,0.607368060892038,0.27722074642408784,0.6468924984247961]","true","false","dawsTwoStep","47","169263","0.0-47.0"
"[1,0]","[1,0]","[1,0]","[false,true,false,true]","0","0","false","[0.6781202606708551,0.5858501822784297,0.3004079822629913,0.6292053648975634]","true","false","dawsTwoStep","48","172735","0.0-48.0"
"[1,0]","[0,1]","[3,2]","[true,true,false,true]","0","1","true","[0.6640429440765468,0.5832367024689369,0.3312479569350568,0.6538190742550386]","true","true","dawsTwoStep","49","175266","0.0-49.0"
"[1,0]","[0,1]","[2,3]","[true,true,false,true]","0","0","true","[0.6529033997106061,0.5548618812837143,0.336417096716112,0.6619308505343453]","true","true","dawsTwoStep","50","177525","0.0-50.0"
"[1,0]","[1,0]","[2,3]","[true,false,true,false]","0","0","true","[0.650184648319338,0.5959248531605651,0.3604690277341286,0.6531304823798988]","true","true","dawsTwoStep","51","180604","0.0-51.0"
"[1,0]","[2,3]","[3,2]","[false,true,false,true]","0","2","false","[0.6945039007756401,0.6100248616387128,0.3690751968231256,0.6685969062755169]","false","true","dawsTwoStep","52","183213","0.0-52.0"
"[1,0]","[0,1]","[0,1]","[true,true,true,false]","0","0","true","[0.6915231052531301,0.594017621609088,0.4096417201493253,0.6562617106487137]","true","false","dawsTwoStep","53","185881","0.0-53.0"
"[0,1]","[3,2]","[1,0]","[false,false,false,false]","0","3","false","[0.6819748621380215,0.6317756454693984,0.4308427102176668,0.6833338481194828]","false","false","dawsTwoStep","54","189418","0.0-54.0"
"[0,1]","[2,3]","[2,3]","[true,false,true,false]","0","3","false","[0.6820895587736827,0.6437971349496806,0.44032905892358853,0.7008772126174159]","false","true","dawsTwoStep","55","192381","0.0-55.0"
"[0,1]","[1,0]","[0,1]","[false,false,true,false]","0","0","false","[0.6409786119735646,0.6703618931957569,0.43335167587886764,0.7219674397816669]","true","false","dawsTwoStep","56","194618","0.0-56.0"
"[0,1]","[0,1]","[3,2]","[false,true,false,false]","0","0","false","[0.6482877012785856,0.6722183957913279,0.45215106799236915,0.720657715249006]","true","true","dawsTwoStep","57","197657","0.0-57.0"
"[0,1]","[1,0]","[2,3]","[true,true,true,true]","0","1","true","[0.6539579389168383,0.6620254060563722,0.5041128224546063,0.7416254814706653]","true","true","dawsTwoStep","58","200207","0.0-58.0"
"[0,1]","[0,1]","[2,3]","[true,true,true,false]","0","0","true","[0.6922859398257741,0.6643878931299498,0.5161191586660646,0.75]","true","true","dawsTwoStep","59","203680","0.0-59.0"
"[0,1]","[0,1]","[1,0]","[true,false,true,true]","0","0","true","[0.6984056831598675,0.6604094250737775,0.4822359850637554,0.75]","true","false","dawsTwoStep","60","206781","0.0-60.0"
"[0,1]","[3,2]","[0,1]","[true,true,true,true]","0","2","true","[0.6844207894158236,0.6431229768598041,0.4497399357610116,0.75]","false","false","dawsTwoStep","61","209183","0.0-61.0"
"[1,0]","[3,2]","[3,2]","[true,true,true,true]","0","2","true","[0.6817196135971675,0.6570411590645594,0.4253204988367726,0.75]","false","true","dawsTwoStep","62","212294","0.0-62.0"
"[1,0]","[1,0]","[1,0]","[true,false,true,true]","0","1","false","[0.6787994110244654,0.6531215332566058,0.46182405273577953,0.7453782398987986]","true","false","dawsTwoStep","63","216025","0.0-63.0"
"[1,0]","[1,0]","[2,3]","[true,true,true,true]","0","1","true","[0.6621063059488353,0.6192430229473207,0.48565264284912446,0.7468308575412897]","true","true","dawsTwoStep","64","219001","0.0-64.0"
"[0,1]","[0,1]","[3,2]","[true,true,true,true]","0","0","true","[0.6721572501984098,0.5686826529784827,0.4452747818445545,0.75]","true","true","dawsTwoStep","65","222122","0.0-65.0"
"[0,1]","[1,0]","[3,2]","[false,false,false,true]","0","0","false","[0.6539336376634638,0.5682045777885599,0.474537405421439,0.75]","true","true","dawsTwoStep","66","224621","0.0-66.0"
"[1,0]","[0,1]","[3,2]","[true,true,true,false]","1","3","false","[0.6868391674121411,0.5485836990656419,0.4389510352394703,0.75]","true","true","dawsTwoStep","67","226919","0.0-67.0"
"[0,1]","[1,0]","[2,3]","[true,true,false,false]","0","0","true","[0.7139752733890714,0.5712650670805756,0.4369697562346782,0.7133799370143188]","true","true","dawsTwoStep","68","229269","0.0-68.0"
"[0,1]","[0,1]","[3,2]","[false,false,false,true]","0","0","false","[0.7239529096894994,0.5886510356158263,0.42678411916081316,0.6955236545691947]","true","true","dawsTwoStep","69","233002","0.0-69.0"
"[0,1]","[1,0]","[1,0]","[true,true,false,true]","0","1","true","[0.709417564226128,0.5660960277233087,0.4267449969309674,0.6978495883396109]","true","false","dawsTwoStep","70","235726","0.0-70.0"
"[0,1]","[1,0]","[1,0]","[true,true,false,true]","0","0","true","[0.7319500712943816,0.6166171336647301,0.4087505697476037,0.7444118884232722]","true","false","dawsTwoStep","71","238404","0.0-71.0"
"[0,1]","[0,1]","[2,3]","[true,true,true,true]","0","0","true","[0.7338548335895934,0.601782153908104,0.448677746257478,0.7124295473606764]","true","true","dawsTwoStep","72","240646","0.0-72.0"
"[1,0]","[0,1]","[1,0]","[true,false,false,true]","1","0","true","[0.7191777067018899,0.6038318026598366,0.4675714363419422,0.6879748424817456]","true","false","dawsTwoStep","73","243218","0.0-73.0"
"[0,1]","[1,0]","[0,1]","[true,false,false,true]","0","1","false","[0.7025439258899027,0.6417396325353231,0.43850692510426104,0.7427631984163848]","true","false","dawsTwoStep","74","247556","0.0-74.0"
"[1,0]","[2,3]","[3,2]","[true,true,true,true]","1","3","true","[0.6720937146784711,0.6714718485018434,0.4769075937142612,0.75]","false","true","dawsTwoStep","75","250298","0.0-75.0"
"[0,1]","[0,1]","[0,1]","[false,true,false,true]","0","1","true","[0.6799142912144729,0.674385913430978,0.4750745973810629,0.75]","true","false","dawsTwoStep","76","252603","0.0-76.0"
"[1,0]","[0,1]","[2,3]","[true,true,false,true]","1","3","true","[0.6887679570366891,0.6962150329107881,0.5017113580549413,0.7383434707720231]","true","true","dawsTwoStep","77","255476","0.0-77.0"
"[0,1]","[0,1]","[3,2]","[false,true,false,false]","0","0","false","[0.6945450360255078,0.7375923094808514,0.4983088652621286,0.75]","true","true","dawsTwoStep","78","258117","0.0-78.0"
"[1,0]","[0,1]","[3,2]","[false,true,false,true]","1","2","false","[0.6623622323764911,0.74500779227972,0.49974171058714667,0.75]","true","true","dawsTwoStep","79","260482","0.0-79.0"
"[1,0]","[0,1]","[3,2]","[false,false,true,true]","1","2","true","[0.6277466145405814,0.75,0.4803576765415313,0.724664969908247]","true","true","dawsTwoStep","80","263782","0.0-80.0"
"[1,0]","[0,1]","[0,1]","[false,true,false,false]","1","0","false","[0.6170751801715738,0.7468766682959622,0.4646680574751594,0.7127822664181036]","true","false","dawsTwoStep","81","266085","0.0-81.0"
"[0,1]","[2,3]","[1,0]","[true,true,true,true]","0","3","true","[0.6327897217252599,0.75,0.4421741003035356,0.6602961442988735]","false","false","dawsTwoStep","82","269171","0.0-82.0"
"[1,0]","[0,1]","[0,1]","[true,true,false,false]","1","0","true","[0.6636688815392536,0.7463499931644516,0.4346985934621319,0.6845086757336812]","true","false","dawsTwoStep","83","271685","0.0-83.0"
"[1,0]","[1,0]","[3,2]","[false,true,false,true]","0","0","false","[0.6669167926847381,0.75,0.43808649335079775,0.6557209758240082]","true","true","dawsTwoStep","84","274522","0.0-84.0"
"[1,0]","[0,1]","[2,3]","[true,true,true,true]","0","1","true","[0.6757472312188675,0.7362957901494304,0.479416904733317,0.6497648471808659]","true","true","dawsTwoStep","85","277290","0.0-85.0"
"[1,0]","[1,0]","[3,2]","[true,true,false,false]","1","2","false","[0.6506608044725002,0.7274658289122549,0.48856618407016433,0.6496498610610926]","true","true","dawsTwoStep","86","279831","0.0-86.0"
"[1,0]","[1,0]","[2,3]","[true,true,true,true]","0","1","true","[0.7125150327629334,0.7317345543156265,0.47128680834277903,0.6541969589365609]","true","true","dawsTwoStep","87","282316","0.0-87.0"
"[0,1]","[0,1]","[0,1]","[false,true,false,true]","0","0","false","[0.6675980255779741,0.7135872744791967,0.45822539868901163,0.6463821565205385]","true","false","dawsTwoStep","88","285088","0.0-88.0"
"[0,1]","[1,0]","[3,2]","[true,true,false,true]","0","0","true","[0.6338202893854658,0.6578224770221661,0.49327322144879204,0.6411705669620719]","true","true","dawsTwoStep","89","287704","0.0-89.0"
"[0,1]","[3,2]","[1,0]","[true,true,false,true]","0","3","true","[0.6557956227290024,0.6984014346164554,0.4421911689371243,0.6159253671264457]","false","false","dawsTwoStep","90","291445","0.0-90.0"
"[1,0]","[1,0]","[3,2]","[false,true,true,true]","0","0","false","[0.6462531353833348,0.75,0.478389845925758,0.6321489274224726]","true","true","dawsTwoStep","91","294321","0.0-91.0"
"[0,1]","[1,0]","[0,1]","[false,true,false,true]","0","0","false","[0.6288233270279552,0.7302316659617017,0.4761299884159092,0.6234355911112758]","true","false","dawsTwoStep","92","296658","0.0-92.0"
"[0,1]","[2,3]","[2,3]","[true,false,false,false]","0","3","false","[0.6057120604611478,0.75,0.5120227912089165,0.6538624901835551]","false","true","dawsTwoStep","93","301618","0.0-93.0"
"[1,0]","[0,1]","[3,2]","[true,true,true,true]","0","0","true","[0.5900799731888121,0.75,0.5103585529368938,0.6147763371647623]","true","true","dawsTwoStep","94","304186","0.0-94.0"
"[1,0]","[1,0]","[0,1]","[true,true,false,true]","0","1","true","[0.5613968240088103,0.75,0.5301240194235446,0.6514734448394776]","true","false","dawsTwoStep","95","307244","0.0-95.0"
"[0,1]","[3,2]","[2,3]","[false,true,true,true]","0","3","true","[0.5339867124747222,0.75,0.5758082787252253,0.6039206448065793]","false","true","dawsTwoStep","96","310707","0.0-96.0"
"[0,1]","[1,0]","[2,3]","[false,true,true,true]","0","0","false","[0.5110716414083472,0.75,0.5393078173299577,0.5803835038428734]","true","true","dawsTwoStep","97","314827","0.0-97.0"
"[1,0]","[2,3]","[2,3]","[true,true,true,false]","1","3","false","[0.4733479059564938,0.75,0.5655587582888851,0.6080997293349543]","false","true","dawsTwoStep","98","317452","0.0-98.0"
"[0,1]","[0,1]","[2,3]","[true,true,false,true]","0","0","true","[0.46982470864227815,0.75,0.5683215073066564,0.5850215901653713]","true","true","dawsTwoStep","99","319462","0.0-99.0"
"[1,0]","[1,0]","[2,3]","[true,false,true,true]","1","3","true","[0.4895997633060064,0.75,0.5997357008303031,0.5741232578567194]","true","true","dawsTwoStep","100","322024","0.0-100.0"
"[0,1]","[3,2]","[2,3]","[true,true,false,true]","0","2","false","[0.4790989643688269,0.7339506409558895,0.644771502253668,0.5688537648058292]","false","true","dawsTwoStep","101","326438","0.0-101.0"
"[1,0]","[0,1]","[3,2]","[true,true,true,true]","0","0","true","[0.476362664221939,0.7233787084025463,0.6490150992468102,0.567402248418073]","true","true","dawsTwoStep","102","329322","0.0-102.0"
"[1,0]","[3,2]","[1,0]","[true,true,false,false]","0","2","false","[0.4733076235536288,0.75,0.6860814719373107,0.5422957963413553]","false","false","dawsTwoStep","103","332053","0.0-103.0"
"[1,0]","[3,2]","[3,2]","[false,true,true,false]","1","3","false","[0.47652029777737526,0.717776728290764,0.6584164379717538,0.5544477025535766]","false","true","dawsTwoStep","104","336006","0.0-104.0"
"[1,0]","[1,0]","[2,3]","[true,true,true,false]","1","3","false","[0.4854567798758819,0.7068661323840336,0.6483155869940996,0.5389447407653697]","true","true","dawsTwoStep","105","338785","0.0-105.0"
"[0,1]","[0,1]","[0,1]","[true,true,false,false]","0","0","true","[0.4476713974235946,0.6933750169433438,0.6928683982829605,0.5570010806819908]","true","false","dawsTwoStep","106","341126","0.0-106.0"
"[1,0]","[3,2]","[3,2]","[false,false,false,false]","0","3","false","[0.41565043916949973,0.6810652616899102,0.7106052915396289,0.6004842412533961]","false","true","dawsTwoStep","107","343848","0.0-107.0"
"[1,0]","[1,0]","[3,2]","[false,true,true,false]","1","2","true","[0.44424145079609684,0.6722196822102909,0.7139389681594283,0.5898281711527306]","true","true","dawsTwoStep","108","345833","0.0-108.0"
"[1,0]","[0,1]","[0,1]","[false,false,true,true]","0","0","false","[0.4023080920676462,0.7160430979640102,0.7379122935452782,0.5473201418380443]","true","false","dawsTwoStep","109","348808","0.0-109.0"
"[0,1]","[1,0]","[1,0]","[false,true,true,true]","1","0","false","[0.4023928886623169,0.7048091315827354,0.7008462158295222,0.5356125376578468]","true","false","dawsTwoStep","110","351018","0.0-110.0"
"[1,0]","[0,1]","[2,3]","[false,false,true,true]","1","3","true","[0.43774395836092456,0.6620837480004238,0.7420917334744128,0.5302224108899337]","true","true","dawsTwoStep","111","353503","0.0-111.0"
"[1,0]","[0,1]","[3,2]","[false,true,true,true]","1","3","true","[0.4131663831202239,0.6930387239869049,0.7238115670031194,0.49778258332297576]","true","true","dawsTwoStep","112","355955","0.0-112.0"
"[1,0]","[3,2]","[3,2]","[true,false,false,true]","0","3","true","[0.39928545978874985,0.6375897883716866,0.6978522658375198,0.47981797407748433]","false","true","dawsTwoStep","113","358551","0.0-113.0"
"[0,1]","[1,0]","[3,2]","[false,true,true,false]","0","0","false","[0.37098414986467,0.6479810513264164,0.7056139543619842,0.4855388284470633]","true","true","dawsTwoStep","114","361495","0.0-114.0"
"[1,0]","[0,1]","[0,1]","[false,true,true,false]","0","1","true","[0.3715040354108519,0.748226779874681,0.7317426760068381,0.4590063169021593]","true","false","dawsTwoStep","115","363599","0.0-115.0"
"[0,1]","[2,3]","[3,2]","[false,true,false,true]","0","3","true","[0.3685769152006609,0.7375026226892545,0.736367974293213,0.46921371402245055]","false","true","dawsTwoStep","116","366190","0.0-116.0"
"[0,1]","[3,2]","[0,1]","[true,true,true,true]","1","0","true","[0.35273437077251446,0.75,0.75,0.4959250498937569]","false","false","dawsTwoStep","117","368770","0.0-117.0"
"[0,1]","[2,3]","[3,2]","[true,false,false,false]","0","2","false","[0.34538470316778147,0.75,0.75,0.44560815245548346]","false","true","dawsTwoStep","118","371035","0.0-118.0"
"[1,0]","[1,0]","[2,3]","[true,true,true,false]","0","0","true","[0.3672982635505694,0.7498823185728466,0.7419530944851463,0.4599288687693004]","true","true","dawsTwoStep","119","373120","0.0-119.0"
"[0,1]","[1,0]","[1,0]","[true,false,true,false]","0","0","true","[0.34086572118902136,0.734110857266419,0.7455426295676612,0.454563532783899]","true","false","dawsTwoStep","120","375324","0.0-120.0"
"[0,1]","[0,1]","[3,2]","[false,false,true,true]","1","3","true","[0.37910600092799307,0.7362104213271504,0.7250885197272781,0.46193291485404814]","true","true","dawsTwoStep","121","377364","0.0-121.0"
"[0,1]","[0,1]","[0,1]","[false,false,false,true]","0","0","false","[0.3746144624324515,0.7238873462586906,0.75,0.4569359537671624]","true","false","dawsTwoStep","122","379444","0.0-122.0"
"[0,1]","[2,3]","[3,2]","[false,true,false,false]","1","2","false","[0.4050586500233268,0.7465721143450502,0.7328060183929708,0.47750056497483023]","false","true","dawsTwoStep","123","381420","0.0-123.0"
"[1,0]","[2,3]","[3,2]","[true,true,true,false]","1","2","true","[0.4291137672753895,0.7154927461631277,0.7317049074840178,0.4329749867908168]","false","true","dawsTwoStep","124","383552","0.0-124.0"
"[0,1]","[0,1]","[0,1]","[false,true,true,true]","1","0","false","[0.4418632049243476,0.6936224393924882,0.7246956535322198,0.42592753740006556]","true","false","dawsTwoStep","125","385633","0.0-125.0"
"[1,0]","[3,2]","[3,2]","[false,false,true,true]","0","3","true","[0.44197272899875056,0.7059452653122857,0.7276313210856971,0.4432814382217604]","false","true","dawsTwoStep","126","388506","0.0-126.0"
"[0,1]","[0,1]","[3,2]","[true,false,false,false]","0","1","false","[0.4560080986149409,0.7341124302653449,0.7328930141436331,0.4876417497307648]","true","true","dawsTwoStep","127","390603","0.0-127.0"
"[0,1]","[1,0]","[1,0]","[false,true,true,true]","0","1","true","[0.43747209620733024,0.6842116507181624,0.7405426035915115,0.4597387394667895]","true","false","dawsTwoStep","128","392597","0.0-128.0"
"[1,0]","[1,0]","[3,2]","[false,true,true,false]","0","0","false","[0.4393535325520912,0.6940364011996655,0.7411798156369316,0.43240231499434134]","true","true","dawsTwoStep","129","394645","0.0-129.0"
"[0,1]","[1,0]","[2,3]","[false,false,false,true]","0","0","false","[0.42471867796133217,0.6749505685743518,0.7383021694343865,0.39630528319699426]","true","true","dawsTwoStep","130","396657","0.0-130.0"
"[1,0]","[1,0]","[2,3]","[true,false,true,false]","1","3","false","[0.38814721760171644,0.6818344334969851,0.7256990442723524,0.3973206108109034]","true","true","dawsTwoStep","131","399550","0.0-131.0"
"[1,0]","[1,0]","[3,2]","[true,true,true,false]","1","3","false","[0.3843871179179008,0.7137821151942754,0.75,0.42744464167559365]","true","true","dawsTwoStep","132","401592","0.0-132.0"
"[1,0]","[2,3]","[2,3]","[false,true,true,false]","0","3","false","[0.404430792944379,0.7285762304134691,0.7120606541354051,0.40849459544302247]","false","true","dawsTwoStep","133","403828","0.0-133.0"
"[1,0]","[2,3]","[2,3]","[true,true,false,false]","1","3","false","[0.4230487377475722,0.75,0.7155952062188429,0.4278568589017632]","false","true","dawsTwoStep","134","406218","0.0-134.0"
"[0,1]","[0,1]","[3,2]","[false,true,true,true]","0","0","false","[0.46773031077287186,0.7407508766133486,0.6910839645282214,0.4414371065450651]","true","true","dawsTwoStep","135","409045","0.0-135.0"
"[0,1]","[3,2]","[3,2]","[false,false,true,false]","1","3","false","[0.4623506591332248,0.7404380606110724,0.7180041707287327,0.4382520469384094]","false","true","dawsTwoStep","136","412194","0.0-136.0"
"[0,1]","[0,1]","[3,2]","[true,false,true,true]","0","1","false","[0.4566888674215948,0.732394398484205,0.7362769521398668,0.4284344288085724]","true","true","dawsTwoStep","137","413922","0.0-137.0"
"[0,1]","[0,1]","[2,3]","[true,true,true,true]","1","3","true","[0.42348669286634516,0.75,0.7216601161682743,0.3962674070359478]","true","true","dawsTwoStep","138","416277","0.0-138.0"
"[1,0]","[3,2]","[1,0]","[true,true,true,true]","1","0","true","[0.4127531798229932,0.743511338293508,0.6930806434041379,0.38262657290025903]","false","false","dawsTwoStep","139","419371","0.0-139.0"
"[0,1]","[0,1]","[2,3]","[true,true,false,false]","1","3","false","[0.43816649278982744,0.7162260618895671,0.6677924384895113,0.3643531731343196]","true","true","dawsTwoStep","140","423216","0.0-140.0"
"[1,0]","[3,2]","[3,2]","[true,true,true,true]","1","2","true","[0.4350637694605194,0.7430085686179958,0.6543594910231105,0.3665611796549138]","false","true","dawsTwoStep","141","425138","0.0-141.0"
"[0,1]","[1,0]","[3,2]","[true,true,true,false]","0","0","true","[0.4276408818445213,0.75,0.6726807719371619,0.36668656467913546]","true","true","dawsTwoStep","142","427876","0.0-142.0"
"[1,0]","[0,1]","[0,1]","[false,true,true,false]","1","0","false","[0.414856234196105,0.75,0.6903755867944441,0.37962676554423214]","true","false","dawsTwoStep","143","430529","0.0-143.0"
"[1,0]","[2,3]","[2,3]","[true,true,true,false]","0","2","true","[0.40502919571772517,0.75,0.6719856962098504,0.38520237458965206]","false","true","dawsTwoStep","144","432525","0.0-144.0"
"[1,0]","[1,0]","[1,0]","[false,true,true,false]","1","0","false","[0.42249371123167767,0.7269656004141254,0.6836415931567206,0.33857140475589775]","true","false","dawsTwoStep","145","434710","0.0-145.0"
"[0,1]","[2,3]","[2,3]","[false,true,true,false]","1","3","false","[0.44778252466710966,0.7300847362607313,0.676120066271832,0.32849032778183673]","false","true","dawsTwoStep","146","436663","0.0-146.0"
"[0,1]","[0,1]","[2,3]","[true,false,false,false]","1","2","false","[0.4608823870592133,0.75,0.6619122256546988,0.3587923360925782]","true","true","dawsTwoStep","147","438606","0.0-147.0"
"[1,0]","[1,0]","[3,2]","[true,true,true,false]","1","2","true","[0.49281921100623566,0.75,0.6559480609167478,0.3736200315579841]","true","true","dawsTwoStep","148","441390","0.0-148.0"
"[0,1]","[1,0]","[3,2]","[true,true,false,false]","0","0","true","[0.4919213019459432,0.740099987208555,0.6279340378085179,0.37492239294114327]","true","true","dawsTwoStep","149","443906","0.0-149.0"
"[1,0]","[1,0]","[2,3]","[false,false,true,true]","1","3","true","[0.506685063608606,0.75,0.6199907835212423,0.33139974391730775]","true","true","dawsTwoStep","150","445852","0.0-150.0"
"[1,0]","[1,0]","[1,0]","[false,true,true,true]","1","0","false","[0.5550018666344557,0.7370034368551419,0.6519976440444638,0.3624965035464383]","true","false","dawsTwoStep","151","447721","0.0-151.0"
"[0,1]","[3,2]","[0,1]","[false,true,false,true]","0","2","false","[0.5143355943635338,0.7373612589666368,0.6119536035478701,0.3104121129308353]","false","false","dawsTwoStep","152","450195","0.0-152.0"
"[0,1]","[0,1]","[2,3]","[false,true,false,false]","0","0","false","[0.49621251653874987,0.6955986401076621,0.6334097769536131,0.35708661018618215]","true","true","dawsTwoStep","153","452063","0.0-153.0"
"[0,1]","[0,1]","[3,2]","[false,true,true,false]","1","3","false","[0.5113189217081888,0.7104070126215297,0.6066885054001407,0.4108554778271518]","true","true","dawsTwoStep","154","453980","0.0-154.0"
"[0,1]","[0,1]","[2,3]","[false,true,false,true]","0","1","true","[0.5115984390584057,0.6710344409961659,0.6074892733776308,0.3836752858151181]","true","true","dawsTwoStep","155","456045","0.0-155.0"
"[1,0]","[1,0]","[3,2]","[true,true,false,false]","1","2","false","[0.5151243636125472,0.6407459819537892,0.6269026436812509,0.3435576410523842]","true","true","dawsTwoStep","156","457869","0.0-156.0"
"[0,1]","[2,3]","[2,3]","[true,true,false,true]","1","3","true","[0.5210409940475438,0.6348877556043175,0.6268765847244671,0.3317289528465289]","false","true","dawsTwoStep","157","459806","0.0-157.0"
"[0,1]","[0,1]","[3,2]","[false,true,true,false]","0","0","false","[0.5114895444081891,0.6150350277999722,0.6413942078791582,0.34978639150035135]","true","true","dawsTwoStep","158","461837","0.0-158.0"
"[0,1]","[0,1]","[1,0]","[false,true,true,true]","1","1","true","[0.514549998893649,0.6049993640184916,0.6368178937278907,0.3303981989817418]","true","false","dawsTwoStep","159","463621","0.0-159.0"
"[1,0]","[3,2]","[3,2]","[true,true,false,false]","1","2","false","[0.5225016975505216,0.572485441647886,0.6338670911521956,0.29121630762260997]","false","true","dawsTwoStep","160","465776","0.0-160.0"
"[0,1]","[1,0]","[2,3]","[true,true,false,true]","1","3","true","[0.5066841732792959,0.5821792889760393,0.6263466591604593,0.3026005569500971]","true","true","dawsTwoStep","161","467583","0.0-161.0"
"[1,0]","[1,0]","[2,3]","[true,false,false,true]","1","2","false","[0.4755545656917124,0.5514602018081525,0.5726034196212701,0.3149319127113225]","true","true","dawsTwoStep","162","469718","0.0-162.0"
"[0,1]","[1,0]","[2,3]","[true,true,false,false]","1","2","false","[0.45659140231524864,0.5755882799800999,0.6294023696285493,0.32059931683879644]","true","true","dawsTwoStep","163","471979","0.0-163.0"
"[1,0]","[2,3]","[2,3]","[true,true,true,true]","1","3","true","[0.4886989282395747,0.5694789005832355,0.6433652759224244,0.32282007144565794]","false","true","dawsTwoStep","164","473927","0.0-164.0"
"[1,0]","[0,1]","[1,0]","[true,true,false,false]","1","0","true","[0.5042565265373038,0.6021015121331417,0.6909599786708776,0.31375234708643107]","true","false","dawsTwoStep","165","475870","0.0-165.0"
"[0,1]","[2,3]","[3,2]","[false,true,true,true]","0","2","true","[0.47727989358458617,0.6181714632552188,0.6768383776203921,0.3495520880114335]","false","true","dawsTwoStep","166","478251","0.0-166.0"
"[0,1]","[3,2]","[3,2]","[true,true,true,false]","0","2","true","[0.48064881258392034,0.6553492270144519,0.7108386542347155,0.32377603481791056]","false","true","dawsTwoStep","167","480207","0.0-167.0"
"[0,1]","[3,2]","[0,1]","[false,false,true,true]","0","3","true","[0.4701228537833747,0.6452075525322332,0.6858271544203259,0.32191173821981617]","false","false","dawsTwoStep","168","482624","0.0-168.0"
"[0,1]","[2,3]","[2,3]","[false,true,true,false]","0","3","false","[0.4563340704983353,0.6746427357587738,0.7215514620946796,0.3131361219282565]","false","true","dawsTwoStep","169","484465","0.0-169.0"
"[0,1]","[1,0]","[1,0]","[false,true,true,true]","1","1","true","[0.4308584455183323,0.6791296329308489,0.7136625350938197,0.30341417692368833]","true","false","dawsTwoStep","170","486341","0.0-170.0"
"[0,1]","[1,0]","[2,3]","[false,true,true,true]","1","3","true","[0.44667769679414615,0.6645803646339967,0.6487949133912065,0.3024139711918964]","true","true","dawsTwoStep","171","488184","0.0-171.0"
"[0,1]","[1,0]","[2,3]","[true,false,true,false]","1","2","true","[0.49005441658161153,0.6470987128933985,0.6647448379760246,0.2782863747788914]","true","true","dawsTwoStep","172","489976","0.0-172.0"
"[1,0]","[0,1]","[1,0]","[false,false,true,false]","0","1","false","[0.48358372870146776,0.65394011853112,0.6939046793613626,0.28232148396348344]","true","false","dawsTwoStep","173","492215","0.0-173.0"
"[1,0]","[2,3]","[0,1]","[true,false,false,true]","1","0","true","[0.5238448670369611,0.6406633253040604,0.7206055979504337,0.2722859360445021]","false","false","dawsTwoStep","174","494354","0.0-174.0"
"[1,0]","[0,1]","[1,0]","[true,false,true,false]","1","0","true","[0.4993737294305645,0.6177525941703168,0.7197174516921594,0.30457742594276926]","true","false","dawsTwoStep","175","496220","0.0-175.0"
"[1,0]","[0,1]","[2,3]","[true,false,true,false]","1","2","true","[0.5183490357977459,0.615115294867798,0.7179549299527836,0.28195718226464456]","true","true","dawsTwoStep","176","498077","0.0-176.0"
"[0,1]","[1,0]","[2,3]","[false,false,true,true]","0","0","false","[0.5147773724340645,0.6266392672168035,0.716888480727459,0.29143439351452705]","true","true","dawsTwoStep","177","500079","0.0-177.0"
"[1,0]","[1,0]","[3,2]","[true,true,true,true]","0","1","true","[0.5322673591176136,0.6113627717568925,0.7028015715747372,0.30173614350446293]","true","true","dawsTwoStep","178","502085","0.0-178.0"
"[1,0]","[1,0]","[2,3]","[false,false,true,false]","0","0","false","[0.5306120604248256,0.620493782569847,0.7035385927247385,0.29539143691051134]","true","true","dawsTwoStep","179","503986","0.0-179.0"
"[0,1]","[0,1]","[2,3]","[false,true,true,true]","1","2","true","[0.5115033096667392,0.6312746175623191,0.6986793398337635,0.2706046818446992]","true","true","dawsTwoStep","180","506076","0.0-180.0"
"[0,1]","[3,2]","[2,3]","[false,true,true,false]","1","3","false","[0.5133263994666508,0.596664510873148,0.6700102280425984,0.25]","false","true","dawsTwoStep","181","507925","0.0-181.0"
"[0,1]","[3,2]","[2,3]","[true,false,true,true]","0","3","true","[0.49609285447303225,0.5830880201665529,0.6889417995834995,0.25]","false","true","dawsTwoStep","182","509747","0.0-182.0"
"[1,0]","[0,1]","[0,1]","[false,true,true,true]","0","1","true","[0.4822392079910454,0.5975625637271262,0.702785263876936,0.2535542781107122]","true","false","dawsTwoStep","183","511770","0.0-183.0"
"[0,1]","[1,0]","[0,1]","[false,true,false,false]","0","0","false","[0.5134754772272122,0.5704504196439193,0.6851618627228552,0.25]","true","false","dawsTwoStep","184","513643","0.0-184.0"
"[0,1]","[1,0]","[2,3]","[true,true,true,false]","1","2","true","[0.5125196024374478,0.5876152439517113,0.7217345934162754,0.2648232373604576]","true","true","dawsTwoStep","185","515573","0.0-185.0"
"[0,1]","[1,0]","[2,3]","[true,true,true,true]","0","0","true","[0.5149106292896837,0.5808730806138667,0.705610987808498,0.25803927766876367]","true","true","dawsTwoStep","186","517763","0.0-186.0"
"[1,0]","[2,3]","[2,3]","[true,false,true,false]","0","3","false","[0.48194555118425836,0.522402247077373,0.7138907136125424,0.28209164888203764]","false","true","dawsTwoStep","187","519906","0.0-187.0"
"[0,1]","[3,2]","[2,3]","[true,true,true,true]","0","3","true","[0.47786850766638483,0.5452386708661665,0.6961012145062418,0.27100202429873727]","false","true","dawsTwoStep","188","521881","0.0-188.0"
"[1,0]","[0,1]","[2,3]","[false,true,true,false]","1","3","false","[0.5106959795123668,0.5629555609756411,0.6851987191747737,0.27243709837989105]","true","true","dawsTwoStep","189","524071","0.0-189.0"
"[0,1]","[1,0]","[3,2]","[false,true,false,false]","1","3","false","[0.49251702858162194,0.5465302913997895,0.6781843573206889,0.26220075899248263]","true","true","dawsTwoStep","190","525828","0.0-190.0"
"[1,0]","[1,0]","[3,2]","[true,false,true,false]","1","2","true","[0.5001056243626486,0.551120378349184,0.6878323402297432,0.25]","true","true","dawsTwoStep","191","527779","0.0-191.0"
"[1,0]","[2,3]","[2,3]","[false,true,true,false]","0","3","false","[0.5028546138538257,0.6080093882527372,0.6991582240488042,0.25]","false","true","dawsTwoStep","192","529568","0.0-192.0"
"[0,1]","[1,0]","[2,3]","[false,false,true,false]","0","1","false","[0.500712257362287,0.6220996875775908,0.7023717230599766,0.25068394712037484]","true","true","dawsTwoStep","193","531871","0.0-193.0"
"[0,1]","[1,0]","[3,2]","[false,true,true,true]","0","0","false","[0.5156908509201958,0.583210186789157,0.6953703214200989,0.25099687527275294]","true","true","dawsTwoStep","194","533778","0.0-194.0"
"[1,0]","[1,0]","[3,2]","[true,true,true,false]","1","2","true","[0.4747323792464878,0.6110872484175206,0.6471444766805361,0.2546380058833131]","true","true","dawsTwoStep","195","536648","0.0-195.0"
"[1,0]","[1,0]","[0,1]","[false,true,true,false]","1","0","false","[0.4742952514520663,0.6421621072584172,0.6570060041648037,0.25]","true","false","dawsTwoStep","196","538915","0.0-196.0"
"[0,1]","[1,0]","[3,2]","[true,true,false,false]","1","3","false","[0.47909347080303155,0.597374578882032,0.6210624259972385,0.25]","true","true","dawsTwoStep","197","540902","0.0-197.0"
"[1,0]","[3,2]","[2,3]","[false,false,true,false]","1","3","false","[0.4765316413223683,0.6312230125239068,0.6637554473118555,0.2577533000465669]","false","true","dawsTwoStep","198","542803","0.0-198.0"
"[0,1]","[1,0]","[1,0]","[true,true,true,false]","1","0","true","[0.4415147316854141,0.6461566754468466,0.6706749492378179,0.27621719657638083]","true","false","dawsTwoStep","199","546330","0.0-199.0"
