"stepOne_Param","stepOneTwo_Param","stepTwoTwo_Param","rewards_Param","stepOneChoice","stepTwoChoice","reward","rewardProbabilities","isHighProbOne","isHighProbTwo","trial_type","trial_index","time_elapsed","internal_node_id"
"[1,0]","[1,0]","[3,2]","[false,false,false,true]","1","2","false","[0.2730786611241776,0.44869603196972424,0.33958926940046547,0.6891042851493717]","true","true","dawsTwoStep","0","51536","0.0-0.0"
"[0,1]","[2,3]","[0,1]","[false,true,true,true]","0","2","true","[0.25,0.45557614645840777,0.37786461540123145,0.6777840365567132]","false","false","dawsTwoStep","1","54735","0.0-1.0"
"[0,1]","[1,0]","[0,1]","[false,true,false,false]","0","1","true","[0.2944660075784,0.4752351133362365,0.3698684870842033,0.670866878197282]","true","false","dawsTwoStep","2","58060","0.0-2.0"
"[0,1]","[0,1]","[1,0]","[false,true,false,true]","0","1","true","[0.311012814578266,0.49339759590304294,0.3878552862080778,0.6970540697082974]","true","false","dawsTwoStep","3","61427","0.0-3.0"
"[0,1]","[0,1]","[1,0]","[false,false,true,false]","0","1","false","[0.2931932643506277,0.5018104995227292,0.428617949890842,0.6327874758331284]","true","false","dawsTwoStep","4","64858","0.0-4.0"
"[1,0]","[3,2]","[2,3]","[false,false,false,true]","1","2","false","[0.29291113360697846,0.507053071342483,0.4164295981545258,0.6843762746795331]","false","true","dawsTwoStep","5","67954","0.0-5.0"
"[0,1]","[1,0]","[3,2]","[true,false,false,true]","0","1","false","[0.29318317400715055,0.5158082663472373,0.3881120205232102,0.6883437307521385]","true","true","dawsTwoStep","6","71311","0.0-6.0"
"[0,1]","[2,3]","[0,1]","[true,true,true,true]","0","3","true","[0.3555243522357405,0.494509351253385,0.4113665497875743,0.716819626380818]","false","false","dawsTwoStep","7","74650","0.0-7.0"
"[0,1]","[3,2]","[1,0]","[false,false,true,true]","0","2","true","[0.3720261937688722,0.5112028146441521,0.3835527609916133,0.75]","false","false","dawsTwoStep","8","78211","0.0-8.0"
"[0,1]","[0,1]","[3,2]","[false,true,true,true]","1","3","true","[0.3832820882410775,0.5083004189048893,0.39197946195409056,0.75]","true","true","dawsTwoStep","9","81442","0.0-9.0"
"[1,0]","[2,3]","[2,3]","[false,false,true,true]","0","2","true","[0.36589715562569314,0.512230257774617,0.3681990114057493,0.75]","false","true","dawsTwoStep","10","84514","0.0-10.0"
"[1,0]","[2,3]","[2,3]","[false,false,false,true]","0","2","false","[0.39777690593951925,0.5418102138967739,0.3588121393256105,0.7190735301085194]","false","true","dawsTwoStep","11","87579","0.0-11.0"
"[1,0]","[3,2]","[2,3]","[false,true,true,true]","0","2","true","[0.3915836324403904,0.5729417222373792,0.3505806161134833,0.7064953808254242]","false","true","dawsTwoStep","12","90570","0.0-12.0"
"[1,0]","[1,0]","[2,3]","[true,true,false,true]","0","1","true","[0.4008264598926904,0.5872943795394694,0.34158780564031715,0.663337190971745]","true","true","dawsTwoStep","13","93756","0.0-13.0"
"[1,0]","[0,1]","[0,1]","[false,true,false,true]","0","1","true","[0.4283937378721149,0.5759688150125698,0.3340354561388572,0.6934667792674479]","true","false","dawsTwoStep","14","96847","0.0-14.0"
"[1,0]","[1,0]","[2,3]","[false,true,false,true]","0","1","true","[0.4166074559657778,0.6083304181510142,0.3311562436008043,0.6881112099151734]","true","true","dawsTwoStep","15","100226","0.0-15.0"
"[1,0]","[2,3]","[1,0]","[false,true,false,true]","0","2","false","[0.40031969066820816,0.6248689237803059,0.32686298745514475,0.6795810691437465]","false","false","dawsTwoStep","16","103260","0.0-16.0"
"[1,0]","[0,1]","[2,3]","[false,true,false,true]","1","3","true","[0.40480584704750194,0.6509853629327109,0.30687072354537803,0.6562120322649749]","true","true","dawsTwoStep","17","106494","0.0-17.0"
"[1,0]","[0,1]","[3,2]","[false,true,false,true]","1","3","true","[0.4006044713914055,0.6626279972327934,0.2912338084819659,0.6594850847479735]","true","true","dawsTwoStep","18","109469","0.0-18.0"
"[1,0]","[0,1]","[3,2]","[true,true,false,true]","1","3","true","[0.3903856944893461,0.6288018729658317,0.26818139145555786,0.6329602284377829]","true","true","dawsTwoStep","19","112576","0.0-19.0"
"[0,1]","[1,0]","[3,2]","[false,true,false,true]","0","1","true","[0.3357729129095603,0.6536705729176673,0.2746111667154066,0.6450440087098422]","true","true","dawsTwoStep","20","115410","0.0-20.0"
"[1,0]","[0,1]","[0,1]","[true,true,false,false]","1","0","true","[0.3971607571074184,0.6266543487577474,0.2683232224748118,0.653727673633663]","true","false","dawsTwoStep","21","118392","0.0-21.0"
"[1,0]","[0,1]","[3,2]","[false,true,false,true]","1","3","true","[0.37854757608306405,0.6376322881764299,0.276174398494579,0.6660295117619398]","true","true","dawsTwoStep","22","121445","0.0-22.0"
"[0,1]","[1,0]","[2,3]","[false,false,false,false]","0","1","false","[0.3859859913605017,0.6749089024934043,0.26735022930528474,0.690543852189156]","true","true","dawsTwoStep","23","124280","0.0-23.0"
"[0,1]","[2,3]","[0,1]","[false,true,false,true]","0","2","false","[0.3296215548961891,0.6341389821775847,0.25,0.6755698593630663]","false","false","dawsTwoStep","24","127445","0.0-24.0"
"[0,1]","[1,0]","[2,3]","[true,false,false,true]","1","3","true","[0.2840227719342435,0.6152185767236296,0.25,0.6699904141272623]","true","true","dawsTwoStep","25","131267","0.0-25.0"
"[1,0]","[2,3]","[2,3]","[true,false,true,false]","0","2","true","[0.2789381939914122,0.6324052641241337,0.2625436827271571,0.656482083415919]","false","true","dawsTwoStep","26","134545","0.0-26.0"
"[0,1]","[1,0]","[2,3]","[false,true,false,false]","1","3","false","[0.2732935967057901,0.6248795234626869,0.28072014523433364,0.688771236799795]","true","true","dawsTwoStep","27","137752","0.0-27.0"
"[1,0]","[1,0]","[3,2]","[false,true,false,true]","0","1","true","[0.25,0.5702617639533459,0.2861350883203347,0.6917964476719922]","true","true","dawsTwoStep","28","140606","0.0-28.0"
"[1,0]","[0,1]","[3,2]","[false,false,false,false]","0","0","false","[0.2519564122407746,0.5890823935689081,0.25,0.6652646778513844]","true","true","dawsTwoStep","29","144319","0.0-29.0"
"[1,0]","[0,1]","[2,3]","[false,false,false,true]","0","0","false","[0.2554368867614442,0.5547521075789069,0.27576789200931806,0.7130442016116286]","true","true","dawsTwoStep","30","146938","0.0-30.0"
"[0,1]","[3,2]","[3,2]","[false,true,false,true]","1","2","false","[0.25,0.5696775357629209,0.26224104687162825,0.737993127081598]","false","true","dawsTwoStep","31","149726","0.0-31.0"
"[1,0]","[1,0]","[2,3]","[false,true,false,true]","0","1","true","[0.25,0.6308431577336397,0.2916896636779869,0.7277292714030502]","true","true","dawsTwoStep","32","152547","0.0-32.0"
"[1,0]","[0,1]","[2,3]","[true,true,false,true]","0","1","true","[0.25,0.6416776902156553,0.2892378076408474,0.7305509556769372]","true","true","dawsTwoStep","33","156700","0.0-33.0"
"[1,0]","[0,1]","[3,2]","[false,true,false,false]","0","1","true","[0.2686575781681958,0.6814720994919379,0.2902572737199309,0.6914956980944802]","true","true","dawsTwoStep","34","160047","0.0-34.0"
"[1,0]","[1,0]","[0,1]","[false,false,true,true]","0","0","false","[0.25,0.7002357922854361,0.27982797381135516,0.685195223072451]","true","false","dawsTwoStep","35","162923","0.0-35.0"
"[0,1]","[1,0]","[2,3]","[false,true,false,true]","1","3","true","[0.25,0.6926685718969998,0.27304578599746676,0.7174029567105284]","true","true","dawsTwoStep","36","166687","0.0-36.0"
"[1,0]","[0,1]","[0,1]","[false,false,false,true]","0","1","false","[0.2597717397000183,0.651486135563338,0.300992606354696,0.737542660395674]","true","false","dawsTwoStep","37","169897","0.0-37.0"
"[0,1]","[0,1]","[2,3]","[false,true,false,true]","1","2","false","[0.25,0.640003476438411,0.3044992355738936,0.75]","true","true","dawsTwoStep","38","172754","0.0-38.0"
"[0,1]","[0,1]","[3,2]","[false,true,true,true]","1","2","true","[0.25,0.5785721997080688,0.33896136735690385,0.75]","true","true","dawsTwoStep","39","175537","0.0-39.0"
"[0,1]","[0,1]","[3,2]","[true,true,false,false]","0","1","true","[0.25,0.6150892781782136,0.347671434086295,0.7318369004267504]","true","true","dawsTwoStep","40","178388","0.0-40.0"
"[1,0]","[1,0]","[3,2]","[false,true,true,true]","1","2","true","[0.25,0.6189868052826164,0.32908352206537395,0.7467984194113207]","true","true","dawsTwoStep","41","181545","0.0-41.0"
"[1,0]","[3,2]","[2,3]","[true,true,true,false]","1","2","true","[0.25,0.5785806060955406,0.38026555592641237,0.7443775870931382]","false","true","dawsTwoStep","42","184577","0.0-42.0"
"[0,1]","[0,1]","[3,2]","[false,false,false,false]","0","1","false","[0.26521306684889373,0.6147075313393257,0.34198651833414506,0.75]","true","true","dawsTwoStep","43","187909","0.0-43.0"
"[1,0]","[0,1]","[0,1]","[true,false,false,true]","1","0","true","[0.2982674930522692,0.5967412158614336,0.30913728466400037,0.75]","true","false","dawsTwoStep","44","190896","0.0-44.0"
"[0,1]","[0,1]","[2,3]","[true,true,false,false]","0","1","true","[0.29830253888950486,0.6116235569337103,0.3344523318461385,0.7257657421693853]","true","true","dawsTwoStep","45","193921","0.0-45.0"
"[1,0]","[3,2]","[3,2]","[false,true,false,true]","1","3","true","[0.3472452119094821,0.574666702172223,0.33470386201347757,0.7079786691914414]","false","true","dawsTwoStep","46","197499","0.0-46.0"
"[0,1]","[3,2]","[3,2]","[false,true,false,true]","0","2","false","[0.30852516656823625,0.5402092893901044,0.35352281483048287,0.7074841916815598]","false","true","dawsTwoStep","47","200496","0.0-47.0"
"[0,1]","[1,0]","[1,0]","[false,true,false,true]","0","1","true","[0.32268926525560526,0.5363876429043742,0.34518007355093355,0.6738219641461731]","true","false","dawsTwoStep","48","203212","0.0-48.0"
"[1,0]","[0,1]","[2,3]","[true,false,true,true]","1","3","true","[0.3831870142898279,0.49593964564671905,0.35501897185409353,0.6915822366004255]","true","true","dawsTwoStep","49","206130","0.0-49.0"
"[1,0]","[0,1]","[3,2]","[true,false,true,true]","1","2","true","[0.3776918443187229,0.5139445668585747,0.32587502789895684,0.6810404606270882]","true","true","dawsTwoStep","50","209211","0.0-50.0"
"[0,1]","[1,0]","[3,2]","[false,false,false,true]","0","1","false","[0.3960233956527488,0.5070821684118125,0.2982541298663583,0.6857843758937342]","true","true","dawsTwoStep","51","212016","0.0-51.0"
"[1,0]","[0,1]","[2,3]","[true,false,false,true]","1","2","false","[0.3989698133375856,0.5147641931029241,0.30577403877396625,0.6941389823910956]","true","true","dawsTwoStep","52","215105","0.0-52.0"
"[0,1]","[3,2]","[3,2]","[true,false,false,true]","0","2","false","[0.37041528847278565,0.5104274662022023,0.30416363944467706,0.7097097680888697]","false","true","dawsTwoStep","53","217859","0.0-53.0"
"[1,0]","[0,1]","[3,2]","[true,false,false,false]","1","2","false","[0.3398280199722782,0.538117285750192,0.35338537937370584,0.7203939242411906]","true","true","dawsTwoStep","54","220922","0.0-54.0"
"[1,0]","[0,1]","[2,3]","[false,false,false,false]","1","3","false","[0.3603114021846927,0.5363753857197612,0.39239828564872337,0.6835125708439397]","true","true","dawsTwoStep","55","224039","0.0-55.0"
"[0,1]","[2,3]","[0,1]","[false,false,false,true]","0","2","false","[0.3630443274118962,0.5404905158621344,0.3773236741585865,0.6658400663184041]","false","false","dawsTwoStep","56","226785","0.0-56.0"
"[0,1]","[2,3]","[1,0]","[false,false,false,false]","0","3","false","[0.36158647465381893,0.5042239377979792,0.37807326773664623,0.7155302186133816]","false","false","dawsTwoStep","57","229803","0.0-57.0"
"[1,0]","[0,1]","[1,0]","[false,true,false,true]","1","0","false","[0.3631357927728129,0.5286414112246596,0.37152692819674926,0.7169133146768145]","true","false","dawsTwoStep","58","232862","0.0-58.0"
"[0,1]","[0,1]","[2,3]","[false,false,false,false]","0","0","false","[0.3495940185057852,0.5441133452349856,0.34966301799329624,0.75]","true","true","dawsTwoStep","59","236768","0.0-59.0"
"[0,1]","[1,0]","[2,3]","[true,true,false,false]","0","1","true","[0.32786310832009813,0.5619472184507566,0.36104694409679305,0.75]","true","true","dawsTwoStep","60","239506","0.0-60.0"
"[1,0]","[3,2]","[1,0]","[true,true,false,true]","1","0","true","[0.3293797228151567,0.5576122542583413,0.38251104055979457,0.75]","false","false","dawsTwoStep","61","242545","0.0-61.0"
"[1,0]","[3,2]","[3,2]","[true,true,false,true]","1","3","true","[0.31342199241439206,0.599959536848456,0.4338952836098947,0.75]","false","true","dawsTwoStep","62","246400","0.0-62.0"
"[1,0]","[1,0]","[2,3]","[true,true,false,true]","1","2","false","[0.3140085555030591,0.5537664434586872,0.4076381062592239,0.75]","true","true","dawsTwoStep","63","250552","0.0-63.0"
"[0,1]","[1,0]","[2,3]","[false,false,true,true]","0","1","false","[0.32435006652490633,0.5548776953372375,0.43873684855329736,0.6872572917825581]","true","true","dawsTwoStep","64","253996","0.0-64.0"
"[0,1]","[0,1]","[0,1]","[false,false,false,true]","0","1","false","[0.3317764801534049,0.5865439337750877,0.47997994728652693,0.653093352425929]","true","false","dawsTwoStep","65","257021","0.0-65.0"
"[0,1]","[3,2]","[1,0]","[true,true,false,true]","0","3","true","[0.30248988340823085,0.5858280828196522,0.48354462840596685,0.6627018249973226]","false","false","dawsTwoStep","66","260139","0.0-66.0"
"[0,1]","[1,0]","[2,3]","[true,true,false,false]","0","0","true","[0.3134018934553606,0.5805146425569638,0.5131354212869281,0.6821219744494629]","true","true","dawsTwoStep","67","264699","0.0-67.0"
"[0,1]","[0,1]","[1,0]","[true,true,true,false]","0","0","true","[0.26779764351395535,0.6084087748324987,0.49957926069658637,0.6722022926485024]","true","false","dawsTwoStep","68","267593","0.0-68.0"
"[0,1]","[2,3]","[2,3]","[false,true,true,true]","0","3","true","[0.25,0.6019914019930831,0.4880508101939637,0.7378071570960821]","false","true","dawsTwoStep","69","270448","0.0-69.0"
"[0,1]","[3,2]","[3,2]","[true,false,true,false]","0","3","false","[0.25,0.6280941349555411,0.5263326602408362,0.7340204938421029]","false","true","dawsTwoStep","70","273300","0.0-70.0"
"[0,1]","[2,3]","[2,3]","[false,false,true,false]","1","3","false","[0.25,0.6592954433672211,0.5213544776147208,0.7336923942173565]","false","true","dawsTwoStep","71","276937","0.0-71.0"
"[0,1]","[2,3]","[2,3]","[false,false,false,true]","1","2","false","[0.25,0.6518608107573592,0.5090958214307616,0.7118565536530396]","false","true","dawsTwoStep","72","280098","0.0-72.0"
"[0,1]","[1,0]","[3,2]","[false,true,true,true]","1","2","true","[0.25,0.6632092463382248,0.46508898757680484,0.7032796700838396]","true","true","dawsTwoStep","73","282813","0.0-73.0"
"[0,1]","[1,0]","[3,2]","[false,false,false,true]","1","2","false","[0.25869201098421657,0.63227816202391,0.4540804919936261,0.7421802622717356]","true","true","dawsTwoStep","74","285690","0.0-74.0"
"[0,1]","[1,0]","[2,3]","[false,false,true,false]","1","2","true","[0.25,0.6001111221474918,0.48947717499662213,0.7211261490246641]","true","true","dawsTwoStep","75","289388","0.0-75.0"
"[0,1]","[1,0]","[2,3]","[true,true,true,false]","1","2","true","[0.28271000448463657,0.567745919351633,0.5160707241237052,0.75]","true","true","dawsTwoStep","76","291998","0.0-76.0"
"[1,0]","[1,0]","[2,3]","[false,false,true,true]","0","0","false","[0.27631095672063344,0.5590313214570468,0.5089797663142086,0.7465942644042386]","true","true","dawsTwoStep","77","294585","0.0-77.0"
"[1,0]","[0,1]","[2,3]","[true,false,true,true]","0","0","true","[0.2605708964058921,0.5634114831684951,0.5286331772686194,0.7379700618401807]","true","true","dawsTwoStep","78","297267","0.0-78.0"
"[0,1]","[0,1]","[2,3]","[false,true,false,false]","1","2","false","[0.25,0.5986538983630362,0.5299378202451113,0.7421108742461778]","true","true","dawsTwoStep","79","299975","0.0-79.0"
"[1,0]","[0,1]","[0,1]","[true,false,false,true]","0","1","false","[0.25,0.5924292301055422,0.5285176035944241,0.7449606927967102]","true","false","dawsTwoStep","80","302659","0.0-80.0"
"[0,1]","[0,1]","[0,1]","[false,true,false,true]","1","0","false","[0.25,0.5496841905870429,0.5179263925115819,0.7140488685401488]","true","false","dawsTwoStep","81","305367","0.0-81.0"
"[1,0]","[1,0]","[1,0]","[false,false,false,false]","0","1","false","[0.2572434738002348,0.5469878298874059,0.510891068876548,0.6982756571737939]","true","false","dawsTwoStep","82","308372","0.0-82.0"
"[0,1]","[2,3]","[3,2]","[false,true,true,true]","1","2","true","[0.25,0.5897192358931033,0.5397641332141268,0.7086014370781276]","false","true","dawsTwoStep","83","311346","0.0-83.0"
"[0,1]","[1,0]","[3,2]","[false,true,false,true]","1","2","false","[0.25,0.5546016289882659,0.5302986747074011,0.7216556360070734]","true","true","dawsTwoStep","84","314049","0.0-84.0"
"[0,1]","[1,0]","[3,2]","[false,false,true,false]","1","3","false","[0.25,0.5738257188356601,0.5250490698427855,0.6713948444668113]","true","true","dawsTwoStep","85","316791","0.0-85.0"
"[0,1]","[0,1]","[3,2]","[false,true,false,false]","1","2","false","[0.25,0.5681051889911606,0.5395757506290794,0.6403360239188518]","true","true","dawsTwoStep","86","319313","0.0-86.0"
"[1,0]","[2,3]","[2,3]","[false,true,true,false]","0","2","true","[0.2760662862438925,0.5818500852057292,0.549840870122792,0.6526216378832489]","false","true","dawsTwoStep","87","322047","0.0-87.0"
"[0,1]","[0,1]","[2,3]","[false,false,true,true]","1","2","true","[0.28430481472672614,0.5508020461375122,0.5614648689485309,0.6823323738517943]","true","true","dawsTwoStep","88","324856","0.0-88.0"
"[0,1]","[1,0]","[3,2]","[false,false,true,true]","1","2","true","[0.26108100912089627,0.5063508164195123,0.6075740236835342,0.6927134616689073]","true","true","dawsTwoStep","89","327759","0.0-89.0"
"[0,1]","[3,2]","[3,2]","[false,true,false,true]","0","2","false","[0.25,0.4961480940871801,0.6139709941987571,0.6640377875352584]","false","true","dawsTwoStep","90","330954","0.0-90.0"
"[1,0]","[1,0]","[3,2]","[true,false,true,true]","1","3","true","[0.25,0.49857259476132293,0.5918226770674743,0.6464367228228892]","true","true","dawsTwoStep","91","333633","0.0-91.0"
"[0,1]","[1,0]","[0,1]","[false,true,true,true]","0","0","false","[0.2610669586112453,0.5099459841884997,0.5785516682043699,0.6738197762979603]","true","false","dawsTwoStep","92","336486","0.0-92.0"
"[0,1]","[2,3]","[2,3]","[true,true,false,true]","0","2","false","[0.25178089701345824,0.5379461620916614,0.5608698945285743,0.6153164243406382]","false","true","dawsTwoStep","93","339276","0.0-93.0"
"[0,1]","[1,0]","[2,3]","[false,true,false,true]","0","0","false","[0.25,0.5333985860235969,0.5256100076749123,0.5880363286177697]","true","true","dawsTwoStep","94","342205","0.0-94.0"
"[1,0]","[1,0]","[3,2]","[false,false,false,true]","1","2","false","[0.26801187587763287,0.5289316931206324,0.5628258849721165,0.5676248404058218]","true","true","dawsTwoStep","95","345155","0.0-95.0"
"[1,0]","[3,2]","[3,2]","[false,false,true,true]","1","3","true","[0.2803578039284475,0.5326112553898352,0.6067204239749753,0.5801043168931896]","false","true","dawsTwoStep","96","347915","0.0-96.0"
"[1,0]","[0,1]","[0,1]","[false,false,false,true]","1","0","false","[0.2763385550400927,0.5071197452127628,0.6449094588099726,0.5309286056127983]","true","false","dawsTwoStep","97","351218","0.0-97.0"
"[0,1]","[0,1]","[0,1]","[false,true,false,false]","0","1","true","[0.28209023445165066,0.4892297845501243,0.6364565828242696,0.4915941414738934]","true","false","dawsTwoStep","98","354385","0.0-98.0"
"[1,0]","[2,3]","[1,0]","[false,false,true,false]","1","1","false","[0.2692071226034806,0.484397356378681,0.6385023115941068,0.49744918027459545]","false","false","dawsTwoStep","99","357371","0.0-99.0"
"[1,0]","[2,3]","[3,2]","[false,true,false,false]","1","2","false","[0.2872440000757519,0.4915550962881003,0.6341605194928578,0.5036624678740377]","false","true","dawsTwoStep","100","360206","0.0-100.0"
"[0,1]","[1,0]","[2,3]","[false,false,false,true]","0","1","false","[0.26158429332008953,0.5077027947931192,0.6454967792878026,0.5030774907634267]","true","true","dawsTwoStep","101","362941","0.0-101.0"
"[1,0]","[1,0]","[2,3]","[true,false,true,false]","1","2","true","[0.25,0.5211909999476643,0.6104743291808287,0.4650553316765227]","true","true","dawsTwoStep","102","366592","0.0-102.0"
"[1,0]","[2,3]","[3,2]","[false,false,false,false]","1","2","false","[0.25,0.5391308367619793,0.61378283543639,0.453310137001047]","false","true","dawsTwoStep","103","370831","0.0-103.0"
"[0,1]","[1,0]","[0,1]","[true,false,true,false]","0","1","false","[0.25,0.5495133250880312,0.6237640260058043,0.43002798076560544]","true","false","dawsTwoStep","104","377964","0.0-104.0"
"[0,1]","[1,0]","[2,3]","[false,true,false,false]","0","0","false","[0.2558633992680244,0.5418884410509129,0.6294492089166409,0.3905846150033889]","true","true","dawsTwoStep","105","380954","0.0-105.0"
"[0,1]","[1,0]","[2,3]","[true,true,true,true]","0","1","true","[0.25,0.5361194674517066,0.6196911905996829,0.41981281619636907]","true","true","dawsTwoStep","106","384768","0.0-106.0"
"[0,1]","[0,1]","[3,2]","[false,false,false,false]","0","1","false","[0.2926705107462068,0.5293814633398565,0.630807278088416,0.40127363324385606]","true","true","dawsTwoStep","107","388200","0.0-107.0"
"[0,1]","[2,3]","[1,0]","[true,true,true,false]","0","2","true","[0.2945548941549169,0.5594633674050868,0.6257769212120156,0.4247927083698611]","false","false","dawsTwoStep","108","391226","0.0-108.0"
"[0,1]","[0,1]","[2,3]","[true,true,true,false]","0","0","true","[0.3384158425122727,0.5531696948195499,0.6315913900275103,0.4260637043912298]","true","true","dawsTwoStep","109","394503","0.0-109.0"
"[1,0]","[0,1]","[0,1]","[true,false,false,false]","1","1","false","[0.31191425750995094,0.5664458021778618,0.6299676389518915,0.4159802013311271]","true","false","dawsTwoStep","110","398072","0.0-110.0"
"[1,0]","[3,2]","[0,1]","[false,true,true,true]","1","0","false","[0.3300982702578726,0.5808880594175987,0.6430029705170208,0.3936324111768821]","false","false","dawsTwoStep","111","401096","0.0-111.0"
"[1,0]","[3,2]","[3,2]","[true,true,true,true]","1","2","true","[0.3495291536315291,0.589014380559344,0.6215665361618469,0.3979207106480631]","false","true","dawsTwoStep","112","404410","0.0-112.0"
"[1,0]","[1,0]","[1,0]","[true,true,false,true]","1","0","true","[0.3348741654325056,0.597919926112551,0.6454409341910641,0.35403259008026455]","true","false","dawsTwoStep","113","408042","0.0-113.0"
"[1,0]","[1,0]","[2,3]","[false,true,false,false]","1","3","false","[0.3542088105292013,0.5641613268571877,0.6194227482345854,0.30336388811408305]","true","true","dawsTwoStep","114","412087","0.0-114.0"
"[1,0]","[1,0]","[2,3]","[true,true,true,false]","1","2","true","[0.4013634377620589,0.5748585328153031,0.626286489243279,0.34536092929914475]","true","true","dawsTwoStep","115","414721","0.0-115.0"
"[1,0]","[1,0]","[3,2]","[true,true,false,false]","1","2","false","[0.35554325152593697,0.5789060658659855,0.6394229799074405,0.353638792850277]","true","true","dawsTwoStep","116","417806","0.0-116.0"
"[0,1]","[3,2]","[2,3]","[false,false,true,false]","0","3","false","[0.32844962222595786,0.6047737833992082,0.6777704505380553,0.38286028189289445]","false","true","dawsTwoStep","117","420628","0.0-117.0"
"[1,0]","[0,1]","[2,3]","[false,true,true,true]","1","3","true","[0.35576829076268407,0.5860926553709294,0.6825606785884786,0.3691721507227116]","true","true","dawsTwoStep","118","423962","0.0-118.0"
"[0,1]","[2,3]","[2,3]","[false,true,false,true]","0","2","false","[0.36797424973198106,0.5643561275794046,0.700746929413563,0.3492237261566925]","false","true","dawsTwoStep","119","426696","0.0-119.0"
"[0,1]","[1,0]","[0,1]","[false,false,true,false]","0","0","false","[0.34165114018297915,0.6225835765768274,0.7335884507240453,0.3484034363500157]","true","false","dawsTwoStep","120","429380","0.0-120.0"
"[0,1]","[3,2]","[3,2]","[true,true,true,false]","0","3","false","[0.3315860349680825,0.6265549697847449,0.7003394397851542,0.31838075645731817]","false","true","dawsTwoStep","121","431903","0.0-121.0"
"[0,1]","[1,0]","[3,2]","[false,true,true,false]","0","0","false","[0.33169214461554847,0.6275182887332289,0.7087306482116781,0.30548243903711364]","true","true","dawsTwoStep","122","434860","0.0-122.0"
"[1,0]","[1,0]","[3,2]","[true,true,true,false]","1","3","false","[0.3150698443492318,0.6650842109712248,0.6922361783772621,0.3290299118446931]","true","true","dawsTwoStep","123","437526","0.0-123.0"
"[0,1]","[3,2]","[0,1]","[false,true,true,false]","0","2","true","[0.339621506477314,0.6839867701064984,0.682505458624531,0.2668099731241501]","false","false","dawsTwoStep","124","440981","0.0-124.0"
"[0,1]","[1,0]","[2,3]","[false,true,true,false]","0","0","false","[0.34858022267805955,0.6693371263942012,0.6933724587109346,0.27447834710092034]","true","true","dawsTwoStep","125","443650","0.0-125.0"
"[0,1]","[1,0]","[2,3]","[false,true,true,false]","0","1","true","[0.34852956503718385,0.7017078109681639,0.6758118798952529,0.26547749270010224]","true","true","dawsTwoStep","126","446273","0.0-126.0"
"[1,0]","[0,1]","[2,3]","[true,true,true,false]","1","3","false","[0.372602742834119,0.6954508669752827,0.6991308909580687,0.26571367414362734]","true","true","dawsTwoStep","127","449075","0.0-127.0"
"[1,0]","[1,0]","[3,2]","[false,true,false,true]","1","3","true","[0.35947040892763193,0.7185551789501785,0.6690248950369777,0.27178964244666004]","true","true","dawsTwoStep","128","451711","0.0-128.0"
"[0,1]","[2,3]","[1,0]","[false,true,true,true]","0","2","true","[0.38384745564179995,0.679930376835409,0.6418397000839859,0.2609203045853592]","false","false","dawsTwoStep","129","455045","0.0-129.0"
"[1,0]","[3,2]","[2,3]","[false,true,true,false]","1","3","false","[0.368406874481759,0.6724405963726118,0.6655733736745968,0.25]","false","true","dawsTwoStep","130","459898","0.0-130.0"
"[0,1]","[0,1]","[1,0]","[false,false,false,false]","0","1","false","[0.3672211351139543,0.6368702674406567,0.6866784711794776,0.2620601693665489]","true","false","dawsTwoStep","131","462665","0.0-131.0"
"[1,0]","[0,1]","[3,2]","[false,true,true,false]","1","3","false","[0.3490809191455141,0.6634356525221218,0.701134270986934,0.318991537000705]","true","true","dawsTwoStep","132","465626","0.0-132.0"
"[0,1]","[1,0]","[2,3]","[true,true,true,true]","0","1","true","[0.3636438222589932,0.6578877177746787,0.7114159698162176,0.3195856819263197]","true","true","dawsTwoStep","133","468310","0.0-133.0"
"[1,0]","[0,1]","[3,2]","[false,false,true,false]","1","3","false","[0.34985502178283473,0.6776751388081148,0.7263959633377959,0.33671269639457907]","true","true","dawsTwoStep","134","470894","0.0-134.0"
"[0,1]","[3,2]","[2,3]","[false,false,true,false]","0","2","true","[0.35471887267234875,0.6482548440450302,0.718940250869432,0.3564731956689893]","false","true","dawsTwoStep","135","473400","0.0-135.0"
"[1,0]","[2,3]","[1,0]","[false,true,true,false]","0","2","true","[0.3344138024938619,0.627979662261738,0.7130924270852379,0.34914797944537646]","false","false","dawsTwoStep","136","476099","0.0-136.0"
"[1,0]","[0,1]","[0,1]","[false,true,true,false]","0","1","true","[0.33916591977975963,0.6451176340469268,0.6741950507510983,0.3475513704263903]","true","false","dawsTwoStep","137","479429","0.0-137.0"
"[1,0]","[0,1]","[3,2]","[false,true,false,false]","0","0","false","[0.3799124990132896,0.624792265869975,0.6748376514921549,0.3838743273845806]","true","true","dawsTwoStep","138","482452","0.0-138.0"
"[0,1]","[2,3]","[0,1]","[false,false,true,false]","1","1","false","[0.3897141775323162,0.6525990566495323,0.6865510084194691,0.4175073752886657]","false","false","dawsTwoStep","139","485428","0.0-139.0"
"[0,1]","[0,1]","[3,2]","[false,true,true,false]","1","3","false","[0.37491379659613766,0.6447711462852497,0.7199127891796027,0.4284712434129085]","true","true","dawsTwoStep","140","488295","0.0-140.0"
"[0,1]","[0,1]","[2,3]","[false,true,true,true]","1","2","true","[0.35419419957733844,0.6272155414081897,0.75,0.4353511082592606]","true","true","dawsTwoStep","141","491430","0.0-141.0"
"[0,1]","[2,3]","[3,2]","[false,true,true,false]","1","2","true","[0.3596424656195871,0.6447906719229917,0.7064639514664447,0.4487161137536995]","false","true","dawsTwoStep","142","494797","0.0-142.0"
"[1,0]","[3,2]","[3,2]","[false,true,false,false]","0","2","false","[0.33865814485865087,0.5985949335016822,0.669735554235401,0.46457705743587596]","false","true","dawsTwoStep","143","498549","0.0-143.0"
"[0,1]","[1,0]","[2,3]","[false,true,true,true]","1","2","true","[0.35880315566129284,0.6252094920163114,0.6974836391782544,0.49973365421270594]","true","true","dawsTwoStep","144","502624","0.0-144.0"
"[1,0]","[0,1]","[0,1]","[false,true,true,true]","0","0","false","[0.36006587477616914,0.6588717777325983,0.7270792781685769,0.4759742795133661]","true","false","dawsTwoStep","145","506654","0.0-145.0"
"[0,1]","[0,1]","[1,0]","[true,true,false,true]","1","0","true","[0.3413833732814585,0.696639868907376,0.7399636446941331,0.46928064590372703]","true","false","dawsTwoStep","146","510128","0.0-146.0"
"[0,1]","[1,0]","[3,2]","[false,true,true,true]","1","2","true","[0.34453197243534356,0.7196736950222157,0.7436495123088519,0.5203952131143232]","true","true","dawsTwoStep","147","513722","0.0-147.0"
"[1,0]","[1,0]","[3,2]","[true,true,false,false]","0","1","true","[0.2923698909253757,0.7219821042421357,0.7075070079122718,0.5311588982101826]","true","true","dawsTwoStep","148","517084","0.0-148.0"
"[0,1]","[1,0]","[1,0]","[false,true,false,false]","1","0","false","[0.2839969668262917,0.7459493955597232,0.7207601203217513,0.5293503452373025]","true","false","dawsTwoStep","149","520221","0.0-149.0"
"[1,0]","[3,2]","[1,0]","[false,false,true,false]","0","2","true","[0.3052742619209909,0.7487544592918179,0.7408330689809156,0.5222309167595269]","false","false","dawsTwoStep","150","523797","0.0-150.0"
"[1,0]","[0,1]","[3,2]","[true,true,true,false]","0","0","true","[0.3241235487514547,0.7092263291523127,0.731962347408905,0.5176634832261872]","true","true","dawsTwoStep","151","527764","0.0-151.0"
"[1,0]","[1,0]","[1,0]","[false,false,true,true]","0","1","false","[0.3006727554624672,0.6790776732921262,0.7400128910104228,0.5147367447580021]","true","false","dawsTwoStep","152","531150","0.0-152.0"
"[1,0]","[1,0]","[3,2]","[false,true,false,true]","0","0","false","[0.3351266924990523,0.6592427158919665,0.718087616328735,0.5102709934974562]","true","true","dawsTwoStep","153","534887","0.0-153.0"
"[1,0]","[1,0]","[2,3]","[false,true,true,false]","0","1","true","[0.3815845462409848,0.6845024990330424,0.7156800411133742,0.5153808192576926]","true","true","dawsTwoStep","154","537611","0.0-154.0"
"[1,0]","[3,2]","[3,2]","[true,true,false,true]","0","2","false","[0.4117399711868478,0.6872897619075806,0.7344055701673747,0.5231766237171834]","false","true","dawsTwoStep","155","541364","0.0-155.0"
"[1,0]","[2,3]","[2,3]","[false,true,true,true]","0","2","true","[0.4529630664085689,0.6747034713617757,0.75,0.5490821989049541]","false","true","dawsTwoStep","156","543998","0.0-156.0"
"[1,0]","[3,2]","[3,2]","[true,true,true,true]","0","2","true","[0.5023869847567133,0.6920602279660703,0.7468748312081055,0.5459190878271735]","false","true","dawsTwoStep","157","547877","0.0-157.0"
"[0,1]","[0,1]","[1,0]","[false,true,true,false]","1","0","false","[0.456103575152235,0.6781752200800851,0.7404508286737126,0.5403575733471924]","true","false","dawsTwoStep","158","550685","0.0-158.0"
"[0,1]","[0,1]","[3,2]","[false,true,false,true]","1","3","true","[0.476273642066746,0.7156007486378901,0.713915306276867,0.5191423374146584]","true","true","dawsTwoStep","159","553552","0.0-159.0"
"[1,0]","[2,3]","[3,2]","[false,true,true,true]","0","2","true","[0.5044824325796606,0.7470737515152437,0.6741889934492956,0.548553757365342]","false","true","dawsTwoStep","160","556773","0.0-160.0"
"[1,0]","[3,2]","[3,2]","[false,true,false,false]","0","2","false","[0.494830864232198,0.75,0.6984788013019144,0.5193662652062593]","false","true","dawsTwoStep","161","559647","0.0-161.0"
"[0,1]","[1,0]","[0,1]","[true,true,true,false]","1","0","true","[0.4665652299341556,0.75,0.6730735627765428,0.5037953665986714]","true","false","dawsTwoStep","162","562409","0.0-162.0"
"[0,1]","[2,3]","[2,3]","[true,false,true,true]","1","3","true","[0.46362766153632967,0.75,0.6595923636727666,0.516165265703887]","false","true","dawsTwoStep","163","565394","0.0-163.0"
"[1,0]","[0,1]","[3,2]","[false,true,true,false]","0","1","true","[0.46598038075819787,0.7223347351522604,0.6270332895974311,0.5183031897171685]","true","true","dawsTwoStep","164","568271","0.0-164.0"
"[1,0]","[0,1]","[3,2]","[false,true,true,true]","0","1","true","[0.4662720751636106,0.7295227237866532,0.5877728241414117,0.5199988032656194]","true","true","dawsTwoStep","165","571163","0.0-165.0"
"[1,0]","[0,1]","[3,2]","[true,false,true,false]","0","1","false","[0.4579682955616488,0.75,0.6093988411386297,0.47769148567727837]","true","true","dawsTwoStep","166","576214","0.0-166.0"
"[0,1]","[1,0]","[3,2]","[false,true,true,true]","1","2","true","[0.4378359139567878,0.75,0.6311473407820628,0.5130127048617309]","true","true","dawsTwoStep","167","579761","0.0-167.0"
"[1,0]","[0,1]","[3,2]","[false,true,true,false]","0","1","true","[0.4535703218032654,0.7432853872781056,0.6517150118695486,0.4730368795303719]","true","true","dawsTwoStep","168","584089","0.0-168.0"
"[1,0]","[0,1]","[2,3]","[false,false,false,false]","0","1","false","[0.45975810279893453,0.75,0.5999082172312364,0.4457838157002234]","true","true","dawsTwoStep","169","587209","0.0-169.0"
"[1,0]","[0,1]","[3,2]","[true,true,false,false]","0","0","true","[0.43258478803155825,0.75,0.6066246335091404,0.4280325912385197]","true","true","dawsTwoStep","170","589921","0.0-170.0"
"[0,1]","[1,0]","[2,3]","[false,true,true,false]","1","2","true","[0.48141886364050906,0.7208297387516976,0.5688218475015322,0.4021346364739419]","true","true","dawsTwoStep","171","592729","0.0-171.0"
"[1,0]","[0,1]","[3,2]","[false,true,false,false]","0","1","true","[0.4812534830209226,0.6942530663611296,0.5454651610674536,0.42335148217665663]","true","true","dawsTwoStep","172","595805","0.0-172.0"
"[0,1]","[3,2]","[3,2]","[true,false,false,false]","1","2","false","[0.4243965877782091,0.6999818603936284,0.5473564591232021,0.41304612006544855]","false","true","dawsTwoStep","173","598676","0.0-173.0"
"[1,0]","[1,0]","[0,1]","[true,true,false,false]","0","1","true","[0.41500289995542194,0.715536151465392,0.5414012375048162,0.3729806666011712]","true","false","dawsTwoStep","174","601390","0.0-174.0"
"[1,0]","[1,0]","[2,3]","[false,true,false,false]","0","1","true","[0.3953864800539717,0.7333526308122618,0.5438839488576369,0.4195739648660636]","true","true","dawsTwoStep","175","604199","0.0-175.0"
"[1,0]","[1,0]","[2,3]","[false,true,false,false]","0","1","true","[0.3492407974963357,0.7310729820089644,0.5374199731985996,0.4238714974069018]","true","true","dawsTwoStep","176","606945","0.0-176.0"
"[1,0]","[1,0]","[2,3]","[true,true,false,true]","0","1","true","[0.3610768130929978,0.7458583088005379,0.5628590920804122,0.4132638646927261]","true","true","dawsTwoStep","177","609737","0.0-177.0"
"[1,0]","[1,0]","[1,0]","[true,true,false,true]","0","1","true","[0.33014838571383887,0.744304167283499,0.6173211485885978,0.43487650396301086]","true","false","dawsTwoStep","178","612453","0.0-178.0"
"[1,0]","[0,1]","[2,3]","[true,false,true,false]","0","1","false","[0.32505828661034186,0.7230725653470645,0.6285314785384365,0.4351555803999286]","true","true","dawsTwoStep","179","615259","0.0-179.0"
"[1,0]","[0,1]","[0,1]","[false,false,true,true]","0","1","false","[0.3382327404923489,0.7129283255132399,0.6492672248550496,0.48653293237682743]","true","false","dawsTwoStep","180","618108","0.0-180.0"
"[0,1]","[0,1]","[0,1]","[false,false,true,true]","1","1","false","[0.3059641865926663,0.7466631029324826,0.6289478162168396,0.5312835594418701]","true","false","dawsTwoStep","181","621130","0.0-181.0"
"[0,1]","[0,1]","[1,0]","[true,false,true,false]","0","1","false","[0.295435407644316,0.75,0.6710604436603131,0.5448051991023138]","true","false","dawsTwoStep","182","624690","0.0-182.0"
"[0,1]","[0,1]","[3,2]","[false,true,true,false]","0","0","false","[0.2855042461320424,0.75,0.6684154297557207,0.5942919780436294]","true","true","dawsTwoStep","183","627540","0.0-183.0"
"[0,1]","[1,0]","[3,2]","[false,false,true,true]","0","1","false","[0.3009503999577361,0.6934900354832834,0.6556021419028387,0.5475790065969345]","true","true","dawsTwoStep","184","630657","0.0-184.0"
"[1,0]","[1,0]","[1,0]","[true,true,true,false]","1","0","true","[0.2586254381261244,0.6773633415959663,0.6442090075171529,0.5610995440654328]","true","false","dawsTwoStep","185","633403","0.0-185.0"
"[1,0]","[0,1]","[2,3]","[false,true,false,true]","1","3","true","[0.2813302630092851,0.6839634246587728,0.6490955999616996,0.5322662592275793]","true","true","dawsTwoStep","186","636574","0.0-186.0"
"[0,1]","[3,2]","[1,0]","[false,true,true,true]","0","2","true","[0.28850145556991114,0.6956392673405116,0.6281290607622891,0.5626673322825568]","false","false","dawsTwoStep","187","639432","0.0-187.0"
"[1,0]","[0,1]","[0,1]","[true,false,true,true]","1","0","true","[0.30535537282557684,0.6712538818358268,0.5861504254087557,0.5791632846124826]","true","false","dawsTwoStep","188","642242","0.0-188.0"
"[1,0]","[1,0]","[3,2]","[true,true,false,true]","1","3","true","[0.3347051953283706,0.6591566531995323,0.5819288515296333,0.576123173137917]","true","true","dawsTwoStep","189","645252","0.0-189.0"
"[1,0]","[0,1]","[2,3]","[false,false,false,false]","1","3","false","[0.3280081378759486,0.6969754747525808,0.5604900432447926,0.578437206254745]","true","true","dawsTwoStep","190","648310","0.0-190.0"
"[0,1]","[2,3]","[1,0]","[true,false,true,false]","0","2","true","[0.30134176483633623,0.7016265078455998,0.5740387454062312,0.5460759242135776]","false","false","dawsTwoStep","191","651070","0.0-191.0"
"[0,1]","[1,0]","[1,0]","[false,true,false,true]","0","1","true","[0.30769664161714044,0.7114351442949872,0.5907048534952504,0.5701681242086629]","true","false","dawsTwoStep","192","653977","0.0-192.0"
"[0,1]","[2,3]","[2,3]","[true,true,false,false]","0","2","false","[0.3311057281729409,0.6865643494396775,0.6269211954884117,0.567371166178079]","false","true","dawsTwoStep","193","656673","0.0-193.0"
"[0,1]","[3,2]","[1,0]","[false,true,true,true]","0","2","true","[0.35862070894785864,0.6759378318884218,0.5995281683556738,0.5684523088541777]","false","false","dawsTwoStep","194","659336","0.0-194.0"
"[0,1]","[1,0]","[3,2]","[false,true,false,true]","0","1","true","[0.387057084707712,0.6322056547981911,0.6292298809459483,0.5737610884902885]","true","true","dawsTwoStep","195","662050","0.0-195.0"
"[0,1]","[2,3]","[2,3]","[true,true,false,false]","0","2","false","[0.3847138980487033,0.594550736354661,0.6347541847446526,0.5452460860113846]","false","true","dawsTwoStep","196","664805","0.0-196.0"
"[1,0]","[0,1]","[2,3]","[true,true,false,false]","1","3","false","[0.41718320313112234,0.551223113803568,0.640744869266751,0.516830465513841]","true","true","dawsTwoStep","197","667636","0.0-197.0"
"[1,0]","[1,0]","[1,0]","[true,true,false,false]","0","1","true","[0.43285982763386466,0.5575633703377033,0.6247260851297192,0.5377862584085812]","true","false","dawsTwoStep","198","671548","0.0-198.0"
"[0,1]","[3,2]","[0,1]","[false,false,false,true]","1","0","false","[0.38363703029053,0.5310999426601386,0.6414391488319596,0.5312876977417795]","false","false","dawsTwoStep","199","674816","0.0-199.0"
